tick,accX,accY,accZ
2295,-9.81479,1.06339,-0.251477
3306,-9.84353,1.07057,-0.237107
4309,-9.8579,1.03465,-0.193997
5319,-9.8076,0.984353,-0.215552
6320,-9.82197,1.13524,-0.186812
7324,-9.82916,0.955613,-0.222737
8325,-9.82916,1.14242,-0.208367
9349,-9.88664,0.962798,-0.222737
10357,-9.81479,1.09931,-0.251477
11361,-9.82197,1.0562,-0.244292
12365,-9.80042,1.1065,-0.229922
13370,-9.88664,1.00591,-0.172441
14374,-9.90101,1.02746,-0.222737
15379,-9.8579,1.04902,-0.172441
16384,-9.8579,0.998723,-0.193997
17388,-9.82916,1.09213,-0.100591
18392,-9.82916,1.1065,-0.273032
19408,-9.8579,1.07776,-0.258662
20416,-9.80042,1.00591,-0.186812
21420,-9.8579,1.04183,-0.143701
22424,-9.80042,1.07776,-0.215552
23430,-9.83635,1.0562,-0.165256
24433,-9.87946,1.02746,-0.158071
25441,-9.82197,1.04902,-0.229922
26441,-9.83635,1.08494,-0.172441
27444,-9.8076,1.03465,-0.186812
28448,-9.82916,1.0562,-0.179626
29464,-9.81479,1.04183,-0.136516
30467,-9.82916,1.06339,-0.186812
31471,-9.82197,1.07776,-0.186812
32473,-9.81479,1.02746,-0.222737
33477,-9.8076,1.08494,-0.222737
34483,-9.8579,1.09931,-0.301772
35485,-9.83635,1.02746,-0.129331
36489,-9.82916,1.09213,-0.265847
37500,-9.82197,1.06339,-0.251477
38500,-9.79323,1.00591,-0.193997
39503,-9.86509,1.02028,-0.258662
40511,-9.80042,1.0562,-0.201182
41515,-9.79323,1.03465,-0.172441
42519,-9.82916,1.09213,-0.193997
43535,-9.78605,0.998723,-0.208367
44541,-9.82916,1.0562,-0.229922
45550,-9.81479,1.07057,-0.237107
46554,-9.82197,1.0562,-0.215552
47556,-9.82197,1.04183,-0.193997
48560,-9.84353,1.06339,-0.215552
49563,-9.83635,1.07057,-0.172441
50569,-9.8579,1.06339,-0.136516
51572,-9.83635,1.03465,-0.193997
52574,-9.87227,1.00591,-0.201182
53579,-9.8579,1.09213,-0.222737
54583,-9.82197,1.08494,-0.179626
55592,-9.83635,1.04902,-0.229922
56598,-9.87227,1.0562,-0.237107
57602,-9.84353,1.06339,-0.158071
58605,-9.8579,1.1065,-0.208367
59621,-9.83635,1.04902,-0.208367
60637,-9.90101,1.07057,-0.244292
61642,-9.8579,1.01309,-0.208367
62652,-9.83635,1.09931,-0.172441
63658,-9.87227,1.03465,-0.244292
64662,-9.83635,1.04183,-0.222737
65669,-9.82197,1.03465,-0.179626
66672,-9.77886,1.06339,-0.201182
67678,-9.8579,1.02746,-0.201182
68683,-9.79323,1.03465,-0.172441
69683,-9.82916,1.02746,-0.222737
70691,-9.80042,1.06339,-0.150886
71694,-9.8579,1.09213,-0.122146
72695,-9.79323,1.04902,-0.251477
73701,-9.84353,1.04183,-0.201182
74707,-9.86509,1.01309,-0.201182
75715,-9.81479,1.04902,-0.215552
76718,-9.84353,1.12087,-0.208367
77733,-9.8579,1.07057,-0.186812
78735,-9.82916,1.02028,-0.186812
79741,-9.8579,0.998723,-0.208367
80748,-9.85072,1.12087,-0.129331
81765,-9.83635,1.02746,-0.208367
82770,-9.82916,1.13524,-0.222737
83772,-9.84353,1.01309,-0.215552
84776,-9.82197,1.07776,-0.158071
85786,-9.83635,0.984353,-0.237107
86787,-9.87227,1.09213,-0.215552
87787,-9.82197,1.01309,-0.222737
88792,-9.86509,1.07057,-0.229922
89797,-9.77886,1.01309,-0.265847
90802,-9.79323,1.07057,-0.143701
91805,-9.82197,1.06339,-0.258662
92808,-9.87227,1.03465,-0.179626
93815,-9.80042,1.04183,-0.265847
94819,-9.82197,1.08494,-0.208367
95823,-9.82197,1.03465,-0.172441
96829,-9.88664,1.0562,-0.193997
97837,-9.83635,1.06339,-0.244292
98847,-9.87946,1.07057,-0.244292
99852,-9.84353,1.03465,-0.237107
100858,-9.8076,1.04902,-0.179626
101859,-9.80042,1.0562,-0.208367
102859,-9.83635,1.09931,-0.165256
103863,-9.82916,1.04902,-0.222737
104868,-9.84353,1.04183,-0.229922
105877,-9.8579,1.04902,-0.186812
106879,-9.85072,1.0562,-0.222737
107885,-9.77168,1.12805,-0.215552
108890,-9.87227,0.890947,-0.193997
109893,-9.83635,1.1999,-0.193997
110901,-9.81479,0.991538,-0.244292
111911,-9.84353,1.12805,-0.215552
112914,-9.84353,1.07776,-0.215552
113917,-9.82916,1.01309,-0.287402
114922,-9.79323,1.07776,-0.107776
115930,-9.81479,1.11368,-0.165256
116939,-9.85072,0.905317,-0.215552
117943,-9.8076,1.19272,-0.179626
118949,-9.82916,0.991538,-0.150886
119949,-9.77168,1.07057,-0.258662
120957,-9.84353,1.04902,-0.193997
121973,-9.82197,1.07776,-0.208367
122975,-9.8579,1.02028,-0.222737
123979,-9.86509,1.0562,-0.172441
124984,-9.84353,1.07057,-0.193997
125992,-9.87946,1.03465,-0.186812
126998,-9.79323,1.07057,-0.193997
128001,-9.87227,1.08494,-0.208367
129001,-9.85072,1.11368,-0.201182
130007,-9.85072,0.991538,-0.208367
131014,-9.87227,1.1065,-0.186812
132014,-9.80042,0.941243,-0.258662
133018,-9.81479,1.15679,-0.258662
134024,-9.83635,0.955613,-0.186812
135035,-9.82197,1.12087,-0.201182
136039,-9.83635,0.991538,-0.158071
137042,-9.79323,1.14242,-0.193997
138048,-9.82197,0.934058,-0.215552
139051,-9.82916,1.16398,-0.172441
140055,-9.86509,0.977168,-0.237107
141063,-9.83635,1.14961,-0.251477
142069,-9.85072,0.984353,-0.186812
143069,-9.81479,1.11368,-0.201182
144081,-9.82197,0.977168,-0.244292
145086,-9.84353,1.1065,-0.215552
146094,-9.78605,1.07057,-0.208367
147099,-9.82197,1.07776,-0.179626
148103,-9.85072,1.0562,-0.193997
149108,-9.82197,1.07776,-0.193997
150112,-9.82197,1.07057,-0.201182
151121,-9.82916,1.1065,-0.251477
152137,-9.82916,1.01309,-0.158071
153138,-9.87946,1.11368,-0.165256
154138,-9.8579,0.977168,-0.208367
155142,-9.80042,1.04902,-0.201182
156153,-9.86509,0.991538,-0.215552
157158,-9.81479,1.08494,-0.172441
158161,-9.85072,1.01309,-0.201182
159164,-9.87946,1.08494,-0.258662
160166,-9.81479,1.06339,-0.208367
161175,-9.77886,0.998723,-0.215552
162179,-9.81479,1.0562,-0.273032
163183,-9.85072,1.0562,-0.222737
164195,-9.79323,1.17835,-0.352068
165200,-9.87227,0.991538,-0.179626
166209,-9.81479,1.17835,-0.179626
167217,-9.83635,1.03465,-0.136516
168221,-9.82916,1.08494,-0.201182
169224,-9.86509,1.02028,-0.179626
170235,-9.82197,1.09213,-0.165256
171245,-9.84353,1.04183,-0.215552
172247,-9.85072,1.0562,-0.172441
173257,-9.87227,1.02746,-0.186812
174276,-9.82916,1.13524,-0.179626
175284,0.229922,11.5033,-190.347
176286,-9.84353,1.1065,-0.150886
177290,-9.84353,0.998723,-0.229922
178296,-9.82197,1.1065,-0.193997
179311,-9.8076,1.04183,-0.179626
180314,-9.83635,1.07057,-0.179626
181318,-9.82916,0.977168,-0.215552
182323,-9.83635,1.07057,-0.179626
183323,-9.83635,1.02746,-0.193997
184326,-9.86509,1.06339,-0.179626
185340,-9.83635,1.06339,-0.158071
186340,-9.82197,1.06339,-0.143701
187340,-9.8579,1.04183,-0.215552
188342,-9.83635,1.0562,-0.186812
189347,-9.82197,1.03465,-0.222737
190355,-9.8076,1.03465,-0.237107
191359,-9.92257,0.790356,-0.158071
192365,-9.82916,0.991538,-0.301772
193371,-9.93694,1.1999,-0.445474
194372,-9.84353,0.768801,-0.280217
195385,-9.86509,1.15679,-0.143701
196391,-9.8579,0.926873,-0.416733
197395,-9.78605,1.06339,-0.380808
198398,-9.98005,0.0718506,0.114961
199403,-9.8579,0.991538,-0.201182
200412,-9.82197,0.977168,-0.208367
201416,-9.85072,1.04902,-0.179626
202420,-9.95131,1.11368,-0.352068
203426,-9.80042,1.07776,-0.158071
204432,-9.81479,1.04183,-0.237107
205439,-9.84353,1.09213,-0.193997
206449,-9.84353,0.955613,-0.237107
207455,-9.79323,1.08494,-0.273032
208459,-9.79323,1.04902,-0.215552
209461,-9.85072,1.04902,-0.244292
210469,-9.84353,1.06339,-0.186812
211473,-9.86509,1.02746,-0.208367
212477,-9.86509,1.03465,-0.222737
213493,-9.8579,1.06339,-0.222737
214505,-9.86509,0.977168,-0.251477
215514,-9.84353,1.02028,-0.244292
216539,-9.8579,1.07776,-0.251477
217543,-9.87227,1.02028,-0.172441
218549,-9.81479,1.06339,-0.258662
219553,-9.8579,1.04183,-0.150886
220562,-10.0303,1.09931,-0.229922
221572,-10.0232,1.36516,-0.0646655
222574,-9.87946,0.768801,0.416733
223578,-9.82197,1.09931,-0.143701
224581,-9.87946,1.09213,-0.0574805
225585,-9.8076,1.02746,-0.172441
226590,-9.83635,1.0562,-0.143701
227594,-9.86509,1.00591,-0.165256
228596,-9.82197,0.962798,-0.165256
229600,-9.80042,1.02746,-0.179626
230604,-9.89383,1.03465,-0.215552
231608,-9.84353,1.08494,-0.208367
232609,-9.79323,1.04183,-0.237107
233615,-9.84353,1.07057,-0.193997
234619,-9.82916,1.01309,-0.136516
235625,-9.82916,1.08494,-0.179626
236637,-9.84353,1.01309,-0.201182
237643,-9.8579,1.07776,-0.172441
238645,-9.86509,1.02746,-0.158071
239655,-9.79323,1.02028,-0.208367
240663,-9.83635,1.0562,-0.136516
241667,-9.82916,1.09213,-0.179626
242667,-9.83635,1.07057,-0.208367
243673,-9.82197,1.1065,-0.193997
244679,-9.8579,1.0562,-0.201182
245687,-9.84353,1.04902,-0.215552
246699,-9.8579,0.991538,-0.193997
247701,-9.78605,1.1065,-0.215552
248706,-9.85072,1.06339,-0.193997
249706,-9.85072,1.09213,-0.208367
250712,-9.88664,1.0562,-0.193997
251718,-9.84353,1.07057,-0.222737
252718,-9.82197,1.03465,-0.244292
253720,-9.81479,1.01309,-0.193997
254724,-9.86509,1.07776,-0.201182
255730,-9.82197,1.07776,-0.237107
256741,-9.82197,1.02746,-0.179626
257742,-9.82916,1.04183,-0.222737
258746,-9.88664,0.998723,-0.244292
259750,-9.86509,1.02746,-0.229922
260758,-9.78605,1.0562,-0.237107
261762,-9.8579,1.02746,-0.179626
262763,-9.8076,1.02746,-0.193997
263769,-9.82916,1.1065,-0.201182
264773,-9.87227,1.0562,-0.129331
265777,-9.92257,1.12805,-0.107776
266783,-9.82197,1.06339,-0.201182
267799,-9.8579,1.02746,-0.172441
268799,-9.81479,1.0562,-0.251477
269803,-9.84353,1.04902,-0.208367
270815,-9.8579,1.07057,-0.165256
271821,-9.81479,1.03465,-0.244292
272825,-9.77886,1.06339,-0.222737
273841,-9.85072,1.04902,-0.193997
274841,-9.85072,1.0562,-0.179626
275849,-9.78605,1.14961,-0.258662
276851,-9.81479,1.01309,-0.172441
277852,-9.85072,1.07057,-0.186812
278855,-9.82197,0.984353,-0.222737
279857,-9.83635,1.1065,-0.244292
280865,-9.82916,0.969983,-0.237107
281871,-9.86509,1.08494,-0.172441
282886,-9.83635,0.991538,-0.193997
283886,-9.85072,1.08494,-0.172441
284894,-9.82197,0.977168,-0.237107
285897,-9.83635,1.07057,-0.237107
286901,-9.75012,1.02746,-0.258662
287901,-9.86509,1.1065,-0.287402
288909,-9.79323,1.03465,-0.229922
289913,-9.83635,1.00591,-0.215552
290920,-9.82916,1.04902,-0.208367
291931,-9.84353,1.00591,-0.251477
292937,-9.88664,0.955613,-0.222737
293941,-9.84353,1.07057,-0.244292
294945,-9.87946,1.0562,-0.222737
295952,-9.87227,1.06339,-0.179626
296958,-9.84353,0.977168,-0.158071
297962,-9.83635,1.04902,-0.172441
298974,-9.85072,1.04902,-0.208367
299978,-9.79323,1.04902,-0.193997
300979,-9.80042,1.03465,-0.143701
301983,-9.82197,1.04183,-0.186812
302987,-9.8579,1.02746,-0.251477
303993,-9.81479,1.06339,-0.258662
304997,-9.80042,1.04183,-0.215552
306005,-9.86509,1.04902,-0.193997
307016,-9.85072,1.04902,-0.186812
308022,-9.82916,1.08494,-0.237107
309034,-9.8579,1.0562,-0.222737
310051,-9.86509,1.04183,-0.150886
311057,-9.81479,1.02028,-0.186812
312061,-9.82197,1.08494,-0.193997
313065,-9.77886,1.09213,-0.215552
314067,-9.83635,1.07057,-0.179626
315073,-9.8579,1.02028,-0.186812
316081,-9.79323,1.0562,-0.215552
317085,-9.83635,1.03465,-0.193997
318087,-9.81479,1.04183,-0.193997
319091,-9.81479,1.00591,-0.244292
320094,-9.82916,1.07057,-0.201182
321098,-9.8076,1.07776,-0.179626
322105,-9.8076,1.01309,-0.193997
323109,-9.83635,1.04902,-0.165256
324113,-9.8579,1.04183,-0.215552
325123,-9.87946,1.02746,-0.201182
326132,-9.83635,1.11368,-0.158071
327147,-9.90101,0.977168,-0.201182
328158,-9.87227,1.12805,-0.215552
329164,-9.83635,0.991538,-0.193997
330166,-9.79323,1.07057,-0.208367
331169,-9.83635,1.07057,-0.208367
332172,-9.87946,0.977168,-0.237107
333178,-9.85072,1.14242,-0.222737
334182,-9.8579,0.991538,-0.265847
335188,-9.77886,1.02746,-0.222737
336196,-9.85072,1.13524,-0.193997
337198,-9.82197,1.00591,-0.237107
338202,-9.80042,1.07776,-0.201182
339205,-9.8579,0.977168,-0.237107
340207,-9.81479,1.11368,-0.215552
341215,-9.83635,1.04902,-0.229922
342215,-9.82197,1.1065,-0.172441
343224,-9.9082,1.04183,-0.172441
344230,-9.8579,1.07776,-0.201182
345244,-9.8076,1.0562,-0.186812
346248,-9.84353,1.03465,-0.208367
347252,-9.85072,1.06339,-0.208367
348256,-9.87227,1.01309,-0.179626
349260,-9.85072,1.04902,-0.229922
350264,-9.8579,1.03465,-0.208367
351265,-9.79323,1.06339,-0.229922
352271,-9.80042,1.08494,-0.208367
353271,-9.82916,1.0562,-0.265847
354273,-9.87227,1.04902,-0.237107
355279,-9.80042,1.06339,-0.215552
356282,-9.90101,1.04902,-0.201182
357286,-9.86509,1.00591,-0.114961
358289,-9.82916,1.04902,-0.186812
359295,-9.81479,1.03465,-0.258662
360299,-9.8076,1.06339,-0.201182
361302,-9.8076,1.02746,-0.244292
362302,-9.81479,1.06339,-0.201182
363308,-9.82197,1.04183,-0.251477
364312,-9.86509,1.02746,-0.229922
365316,-9.88664,1.02746,-0.193997
366326,-9.87946,1.02028,-0.237107
367330,-9.82916,1.07776,-0.251477
368330,-9.84353,1.07057,-0.143701
369333,-9.85072,1.04902,-0.208367
370334,-9.8076,1.07057,-0.208367
371341,-9.85072,1.00591,-0.193997
372343,-9.8076,1.07057,-0.244292
373346,-9.89383,1.09213,-0.143701
374357,-9.87946,1.02028,-0.201182
375359,-9.85072,1.07057,-0.193997
376363,-9.85072,1.02028,-0.337698
377367,-9.82197,1.09931,-0.237107
378371,-9.80042,1.07776,-0.179626
379375,-9.87946,1.07057,-0.158071
380375,-9.82197,1.01309,-0.186812
381382,-9.82916,1.06339,-0.222737
382386,-9.86509,0.977168,-0.244292
383392,-9.75731,1.09213,-0.179626
384401,-9.82197,1.06339,-0.193997
385407,-9.85072,1.0562,-0.258662
386415,-9.8076,1.09931,-0.244292
387417,-9.84353,1.04902,-0.229922
388420,-9.79323,1.12805,-0.158071
389426,-9.83635,0.948428,-0.287402
390429,-9.82197,1.09213,-0.179626
391432,-9.83635,1.01309,-0.193997
392438,-9.90101,0.998723,-0.0718506
393442,-9.86509,1.07776,-0.229922
394445,-9.81479,1.03465,-0.244292
395449,-9.82197,1.15679,-0.186812
396459,-9.85072,0.955613,-0.251477
397463,-9.8076,1.07057,-0.215552
398464,-9.85072,1.13524,-0.294587
399465,-9.82916,1.04183,-0.237107
400466,-9.8579,1.1065,-0.258662
401473,-9.84353,1.16398,-0.265847
402486,-9.88664,0.955613,-0.193997
403491,-9.88664,1.09931,-0.179626
404495,-9.81479,1.12805,-0.215552
405499,-9.86509,0.948428,-0.280217
406507,-9.8076,1.14242,-0.193997
407514,-9.8579,1.03465,-0.215552
408518,-9.8076,1.12805,-0.208367
409522,-9.87227,0.984353,-0.172441
410522,-9.76449,1.17835,-0.193997
411533,-9.8579,0.991538,-0.158071
412533,-9.83635,1.14242,-0.186812
413536,-9.84353,1.07057,-0.237107
414542,-9.84353,1.04183,-0.258662
415576,0.229922,11.5033,-190.347
416580,-9.8579,1.13524,-0.193997
417580,-9.84353,0.948428,-0.158071
418586,-9.90101,1.13524,-0.107776
419590,-9.82197,1.12087,-0.186812
420598,-9.87227,0.898132,-0.244292
421601,-9.82197,1.17835,-0.129331
422602,-9.8579,0.977168,-0.280217
423619,-9.87946,1.01309,-0.215552
424623,-9.86509,1.06339,-0.208367
425633,-9.85072,1.08494,-0.208367
426635,-9.85072,0.998723,-0.158071
427636,-9.81479,0.977168,-0.186812
428640,-9.82916,1.12087,-0.237107
429640,-9.88664,0.912502,-0.222737
430648,-9.85072,1.13524,-0.179626
431652,-9.87227,1.03465,-0.215552
432655,-9.83635,1.09931,-0.179626
433669,-9.86509,1.01309,-0.251477
434669,-9.84353,1.02746,-0.193997
435675,-9.87946,1.04183,-0.237107
436681,-9.85072,1.04902,-0.244292
437683,-9.85072,1.06339,-0.201182
438687,-9.8579,1.13524,-0.158071
439690,-9.8076,1.12805,-0.229922
440699,-9.90101,0.919688,-0.186812
441699,-9.82916,1.04902,-0.193997
442699,-9.80042,1.07776,-0.172441
443702,-9.82197,0.998723,-0.287402
444702,-9.82916,1.13524,-0.273032
445711,-9.8579,1.02746,-0.308958
446715,-9.75012,1.17835,-0.222737
447725,-9.85072,1.12805,-0.136516
448729,-9.87227,0.998723,-0.222737
449733,-9.82916,1.03465,-0.308958
450735,-9.85072,1.14242,-0.237107
451737,-9.86509,1.08494,-0.474214
452739,-9.83635,0.977168,-0.359253
453746,-9.80042,1.06339,-0.265847
454746,-9.81479,1.13524,-0.287402
455752,-9.86509,0.948428,-0.280217
456756,-9.8579,1.09931,-0.172441
457760,-9.8076,1.0562,-0.107776
458760,-9.89383,1.0562,-0.244292
459776,-9.8076,1.0562,-0.201182
460776,-9.86509,1.08494,-0.244292
461784,-9.87946,1.01309,-0.222737
462786,-9.83635,1.14961,-0.186812
463789,-9.85072,0.991538,-0.222737
464793,-9.82916,1.0562,-0.179626
465800,-9.84353,1.02028,-0.186812
466806,-9.85072,0.984353,-0.165256
467808,-9.78605,1.04183,-0.215552
468821,-9.82197,1.02028,-0.186812
469833,-9.87946,1.08494,-0.158071
470845,-9.81479,1.1065,-0.287402
471849,-9.84353,1.04183,-0.237107
472853,-9.88664,1.07057,-0.179626
473853,-9.86509,1.03465,-0.251477
474856,-9.83635,1.09213,-0.258662
475860,-9.87946,1.01309,-0.251477
476874,-9.81479,1.00591,-0.222737
477878,-9.81479,1.11368,-0.201182
478887,-9.85072,0.969983,-0.229922
479889,-9.82197,1.13524,-0.172441
480901,-9.84353,1.02746,-0.172441
481907,-9.84353,1.1065,-0.165256
482909,-9.85072,0.991538,-0.229922
483911,-9.8579,1.09931,-0.150886
484925,-9.84353,1.02028,-0.222737
485925,-9.81479,1.12087,-0.143701
486929,-9.87946,1.04902,-0.193997
487933,-9.90101,1.04902,-0.273032
488937,-9.83635,1.04183,-0.158071
489945,-9.89383,1.06339,-0.251477
490953,-9.86509,0.998723,-0.222737
491955,-9.84353,1.12805,-0.158071
492962,-9.88664,1.04183,-0.143701
493974,-9.88664,1.1065,-0.215552
494989,-9.79323,1.04902,-0.287402
495994,-9.83635,1.08494,-0.193997
497000,-9.84353,1.04183,-0.265847
498006,-9.82197,1.1065,-0.158071
499010,-9.82197,0.998723,-0.222737
500016,-9.83635,1.06339,-0.165256
501024,-9.86509,1.07057,-0.237107
502028,-9.82916,1.02746,-0.352068
503030,-9.81479,1.06339,-0.251477
504046,-9.84353,1.0562,-0.265847
505046,-9.82916,1.04183,-0.244292
506049,-9.83635,1.04183,-0.237107
507052,-9.87946,1.01309,-0.179626
508060,-9.87946,1.06339,-0.129331
509064,-9.85072,1.03465,-0.215552
510068,-9.77168,1.07776,-0.165256
511074,-9.85072,1.11368,-0.129331
512086,-9.81479,1.02746,-0.165256
513089,-9.81479,1.00591,-0.215552
514096,-9.88664,1.01309,-0.201182
515107,-9.8579,1.00591,-0.165256
516112,-9.8579,1.06339,0.0287402
517126,-9.82197,1.06339,-0.229922
518128,-9.8076,1.07776,-0.308958
519132,-9.85072,1.08494,-0.244292
520136,-9.87227,1.09213,-0.308958
521136,-9.82197,1.07057,-0.330513
522142,-9.88664,1.0562,-0.258662
523146,-9.8076,1.03465,-0.150886
524150,-9.85072,0.984353,-0.0646655
525158,-9.81479,1.04902,-0.0359253
526168,-9.77886,0.984353,-0.0862207
527178,-9.82197,1.0562,-0.100591
528182,-9.85072,1.0562,-0.158071
529188,-9.83635,1.11368,-0.201182
530199,-9.87227,1.09213,-0.237107
531203,-9.90101,1.01309,-0.244292
532208,-9.8579,1.0562,-0.273032
533218,-9.87227,1.06339,-0.237107
534222,-9.85072,1.01309,-0.287402
535230,-9.85072,1.07057,-0.265847
536238,-9.8579,1.07776,-0.215552
537250,-9.85072,1.03465,-0.229922
538254,-9.82197,1.07057,-0.193997
539257,-9.82916,1.06339,-0.165256
540266,-9.77886,1.07057,-0.158071
541278,-9.87227,1.04902,-0.179626
542282,-9.84353,1.01309,-0.201182
543286,-9.86509,1.0562,-0.237107
544293,-9.88664,1.00591,-0.251477
545296,-9.90101,1.03465,-0.208367
546300,-9.78605,1.0562,-0.193997
547302,-9.83635,1.09213,-0.258662
548302,-9.87946,1.07057,-0.186812
549307,-9.87227,1.04902,-0.208367
550316,-9.86509,1.04183,-0.244292
551320,-9.83635,1.0562,-0.179626
552324,-9.81479,1.02746,-0.215552
553328,-9.82197,1.08494,-0.201182
554330,-9.85072,1.0562,-0.193997
555332,-9.85072,1.0562,-0.193997
556336,-9.86509,0.998723,-0.215552
557351,-9.85072,1.07057,-0.244292
558352,-9.87946,1.07776,-0.186812
559356,-9.81479,1.02746,-0.208367
560362,-9.82916,1.04183,-0.179626
561370,-9.85072,1.01309,-0.208367
562376,-9.78605,1.07776,-0.193997
563380,-9.82197,1.06339,-0.258662
564392,-9.8579,1.06339,-0.222737
565405,-9.87227,1.09213,-0.330513
566409,-9.85072,1.08494,-0.273032
567413,-9.85072,1.04902,-0.316143
568423,-9.8579,1.06339,-0.330513
569447,-9.83635,1.0562,-0.201182
570450,-9.83635,1.03465,-0.273032
571458,-9.82197,1.04183,-0.222737
572462,-9.83635,1.07057,-0.165256
573468,-9.84353,1.04902,-0.186812
574481,-9.83635,1.06339,-0.193997
575482,-9.85072,1.00591,-0.172441
576482,-9.87946,1.07776,-0.179626
577486,-9.86509,1.01309,-0.193997
578487,-9.82197,1.1065,-0.229922
579490,-9.84353,1.02028,-0.172441
580493,-9.92975,1.04902,-0.201182
581502,-9.87227,1.04183,-0.251477
582519,-9.82916,1.06339,-0.158071
583533,-9.84353,1.01309,-0.201182
584535,-9.8076,1.0562,-0.237107
585539,-9.80042,0.998723,-0.186812
586550,-9.81479,1.02028,-0.222737
587554,-9.82197,1.04183,-0.201182
588559,-9.80042,1.0562,-0.237107
589569,-9.8076,1.07057,-0.172441
590573,-9.84353,1.04902,-0.244292
591578,-9.87946,1.04183,-0.251477
592590,-9.82197,1.00591,-0.193997
593598,-9.82916,0.998723,-0.265847
594602,-9.81479,1.0562,-0.215552
595607,-9.83635,1.06339,-0.215552
596614,-9.83635,1.02746,-0.193997
597618,-9.85072,1.07057,-0.251477
598622,-9.92975,1.06339,-0.193997
599626,-9.80042,1.07057,-0.222737
600643,0.229922,11.5033,-190.347
601654,-9.9082,1.02028,-0.251477
602664,-9.87227,1.04902,-0.244292
603669,-9.81479,1.0562,-0.179626
604673,-9.88664,1.08494,-0.179626
605679,-9.8579,1.04183,-0.158071
606687,-9.8579,1.04183,-0.201182
607691,-9.85072,0.969983,-0.165256
608695,-9.84353,1.09931,-0.208367
609697,-9.90101,1.00591,-0.201182
610705,-9.82916,1.06339,-0.208367
611715,-9.86509,1.00591,-0.251477
612719,-9.85072,1.06339,-0.244292
613725,-9.84353,1.08494,-0.229922
614729,-9.87946,1.0562,-0.215552
615733,-9.8579,1.04902,-0.201182
616740,-9.82916,0.998723,-0.150886
617746,-9.84353,1.07776,-0.208367
618746,-9.82197,1.07776,-0.201182
619752,-9.81479,1.01309,-0.222737
620757,-9.8579,1.00591,-0.222737
621766,-9.90101,1.00591,-0.201182
622768,-9.82916,1.0562,-0.215552
623772,-9.85072,1.08494,-0.201182
624774,-9.9082,1.02028,-0.150886
625776,-9.82197,1.07057,-0.287402
626777,-9.80042,1.02746,-0.258662
627781,-9.8579,1.07776,-0.201182
628790,-9.81479,1.0562,-0.244292
629793,-9.82197,1.04183,-0.265847
630822,-9.82197,1.02028,-0.193997
631838,-9.81479,0.998723,-0.201182
632842,-9.85072,1.04902,-0.143701
633846,-9.82197,1.09213,-0.165256
634848,-9.80042,1.0562,-0.186812
635854,-9.82916,1.02746,-0.215552
636854,-9.87227,1.02028,-0.186812
637866,-9.80042,1.12087,-0.222737
638874,-9.85072,1.0562,-0.179626
639886,-9.88664,1.04902,-0.158071
640893,-9.8076,1.09213,-0.251477
641905,-9.82916,1.00591,-0.273032
642911,-9.87946,1.02028,-0.179626
643915,-9.86509,0.998723,-0.244292
644931,-9.8076,1.04902,-0.244292
645935,-9.82916,0.991538,-0.179626
646940,-9.85072,1.1065,-0.222737
647944,-9.87946,1.04902,-0.193997
648948,-9.82916,1.09931,-0.208367
649954,-9.77886,1.04183,-0.222737
650961,-9.8579,1.09931,-0.244292
651974,-9.81479,1.06339,-0.186812
652977,-9.79323,1.07057,-0.179626
653979,-9.88664,1.04183,-0.150886
654980,-9.86509,1.02028,-0.186812
655986,-9.82916,1.09213,-0.201182
656990,-9.82916,1.04183,-0.222737
657995,-9.81479,1.02028,-0.258662
658999,-9.87227,1.0562,-0.229922
660003,-9.81479,1.07776,-0.222737
661010,-9.8076,1.03465,-0.222737
662012,-9.83635,1.02028,-0.136516
663020,-9.84353,1.02746,-0.244292
664024,-9.82916,1.02746,-0.100591
665030,-9.81479,1.0562,-0.229922
666042,-9.87227,1.04183,-0.244292
667046,-9.85072,1.04902,-0.222737
668047,-9.84353,1.03465,-0.158071
669053,-9.85072,1.02028,-0.280217
670066,-9.82197,1.04183,-0.201182
671070,-9.83635,1.04902,-0.165256
672070,-9.86509,1.04183,-0.244292
673075,-9.78605,1.0562,-0.193997
674082,-9.8579,1.06339,-0.222737
675086,-9.81479,1.00591,-0.215552
676096,-9.83635,1.04183,-0.237107
677100,-9.80042,1.02746,-0.193997
678113,-9.85072,1.04183,-0.215552
679113,-9.8076,1.0562,-0.193997
680117,-9.90101,1.04902,-0.179626
681125,-9.82916,1.02746,-0.201182
682131,-9.88664,1.04902,-0.201182
683132,-9.80042,1.04183,-0.186812
684150,-9.85072,1.1065,-0.172441
685151,-9.84353,1.01309,-0.222737
686159,-9.92975,1.06339,-0.165256
687163,-9.8579,1.09931,-0.222737
688165,-9.83635,1.04183,-0.280217
689169,-9.82197,1.04902,-0.136516
690173,-9.87946,1.07057,-0.165256
691185,-9.90101,1.01309,-0.150886
692189,-9.81479,1.0562,-0.201182
693192,-9.77886,1.07057,-0.251477
694204,-9.8579,1.04902,-0.208367
695208,-9.85072,1.04902,-0.237107
696224,-9.82916,1.04902,-0.179626
697235,-9.87946,1.11368,-0.179626
698241,-9.87946,1.00591,-0.280217
699245,-9.78605,1.07057,-0.172441
700248,-9.86509,0.977168,-0.215552
701260,-9.9082,1.04902,-0.186812
702266,-9.8076,1.07057,-0.165256
703267,-9.90101,1.02746,-0.201182
704270,-9.84353,1.01309,-0.251477
705286,-9.85072,1.08494,-0.179626
706288,-9.86509,0.998723,-0.215552
707292,-9.85072,1.02746,-0.208367
708296,-9.83635,1.04902,-0.229922
709300,-9.77886,1.07057,-0.215552
710301,-9.79323,1.09213,-0.229922
711313,-9.8076,1.0562,-0.229922
712313,-9.82916,1.07776,-0.179626
713315,-9.84353,1.04902,-0.186812
714319,-9.8579,1.0562,-0.215552
715335,-9.8579,1.04902,-0.222737
716340,-9.80042,1.06339,-0.158071
717344,-9.82197,1.04902,-0.229922
718348,-9.85072,1.04902,-0.201182
719352,-9.87227,1.02746,-0.165256
720362,-9.83635,1.09213,-0.208367
721366,-9.84353,1.04902,-0.179626
722366,-9.82916,1.04902,-0.215552
723375,-9.8579,0.998723,-0.158071
724375,-9.86509,1.07776,-0.301772
725378,-9.8579,1.02028,-0.258662
726385,-9.8579,1.09931,-0.186812
727390,-9.84353,1.03465,-0.229922
728398,-9.80042,1.15679,-0.251477
729414,-9.84353,0.905317,-0.222737
730427,-9.85072,1.12087,-0.165256
731433,-9.86509,1.11368,-0.201182
732437,-9.8579,1.04183,-0.172441
733441,-9.87946,1.07776,-0.208367
734444,-9.87227,0.969983,-0.201182
735447,-9.84353,1.01309,-0.229922
736453,-9.85072,0.969983,-0.273032
737457,-9.82916,1.09931,-0.201182
738462,-9.88664,1.01309,-0.258662
739477,-9.87227,1.08494,-0.273032
740477,-9.87946,0.998723,-0.215552
741478,-9.8076,1.08494,-0.273032
742482,-9.83635,1.0562,-0.244292
743486,-9.87946,1.08494,-0.201182
744490,-9.86509,1.04183,-0.244292
745502,-9.83635,0.991538,-0.316143
746514,-9.80042,1.09213,-0.222737
747517,-9.87227,1.07776,-0.229922
748528,-9.82916,1.0562,-0.150886
749530,-9.85072,1.06339,-0.215552
750534,-9.94412,1.04183,-0.186812
751540,-9.8579,1.0562,-0.229922
752542,-9.8579,1.03465,-0.150886
753548,-9.85072,0.998723,-0.150886
754554,-9.86509,1.08494,-0.172441
755557,-9.81479,1.03465,-0.229922
756565,-9.80042,1.09213,-0.193997
757570,-9.80042,1.00591,-0.172441
758574,-9.8076,1.03465,-0.229922
759585,-9.84353,1.01309,-0.136516
760589,-9.82916,1.07776,-0.323328
761601,-9.84353,1.01309,-0.280217
762607,-9.84353,1.09213,-0.201182
763609,-9.8076,1.02028,-0.251477
764624,-9.82916,1.12087,-0.237107
765624,-9.8579,0.977168,-0.222737
766629,-9.83635,1.04902,-0.258662
767631,-9.82916,1.07776,-0.222737
768635,-9.79323,1.1065,-0.237107
769639,-9.85072,0.977168,-0.251477
770643,-9.83635,1.09931,-0.201182
771657,-9.84353,1.02028,-0.273032
772664,-9.83635,1.03465,-0.193997
773664,-9.87227,0.969983,-0.251477
774668,-9.8579,1.02746,-0.165256
775669,-9.81479,1.04902,-0.215552
776676,-9.8076,1.07776,-0.179626
777680,-9.87227,1.08494,-0.172441
778686,-9.81479,1.03465,-0.172441
779694,-9.82197,1.12087,-0.208367
780709,-9.81479,1.01309,-0.165256
781709,-9.78605,1.09213,-0.208367
782715,-9.87227,1.0562,-0.251477
783718,-9.84353,1.03465,-0.280217
784722,-9.85072,1.07057,-0.244292
785726,-9.8076,0.962798,-0.222737
786732,-9.8579,1.14961,-0.193997
787735,-9.78605,1.07776,-0.186812
788739,-9.88664,1.12087,-0.172441
789744,-9.88664,0.969983,-0.201182
790744,-9.83635,1.08494,-0.186812
791745,-9.85072,1.00591,-0.215552
792749,-9.84353,1.06339,-0.222737
793755,-9.87946,1.01309,-0.265847
794767,-9.84353,1.07057,-0.237107
795773,-9.82916,0.962798,-0.215552
796777,-9.84353,1.06339,-0.258662
797782,-9.85072,1.01309,-0.273032
798782,-9.85072,1.06339,-0.229922
799786,-9.84353,1.09931,-0.193997
800790,-9.85072,1.04902,-0.229922
801800,-9.81479,1.02028,-0.237107
802804,-9.82197,1.02746,-0.222737
803808,-9.85072,1.08494,-0.179626
804814,-9.86509,1.01309,-0.251477
805831,-9.85072,1.0562,-0.229922
806835,-9.87946,1.00591,-0.158071
807839,-9.83635,1.03465,-0.244292
808840,-9.80042,1.04902,-0.208367
809846,-9.8076,1.04183,-0.165256
810852,-9.8579,1.08494,-0.208367
811860,-9.82197,1.03465,-0.193997
812862,-9.81479,1.04183,-0.208367
813866,-9.81479,1.02746,-0.186812
814868,-9.88664,1.0562,-0.136516
815874,-9.87946,1.02028,-0.222737
816880,-9.82916,1.07776,-0.179626
817892,-9.8579,1.00591,-0.114961
818909,-9.88664,1.15679,-0.179626
819912,-9.82916,0.984353,-0.222737
820916,-9.83635,1.11368,-0.244292
821924,-9.92975,1.02028,-0.229922
822924,-9.85072,1.06339,-0.222737
823927,-9.8579,1.03465,-0.208367
824931,-9.83635,1.07776,-0.280217
825935,-9.8076,1.02028,-0.215552
826943,-9.80042,1.09213,-0.237107
827948,-9.87227,1.09931,-0.201182
828950,-9.82197,1.02746,-0.215552
829953,-9.78605,1.12087,-0.208367
830959,-9.94412,1.0562,-0.208367
831964,-9.85072,1.15679,-0.122146
832968,-9.84353,0.955613,-0.186812
833972,-9.87946,1.12087,-0.193997
834978,-9.87227,0.984353,-0.229922
835982,-9.86509,1.06339,-0.244292
836990,-9.8579,1.03465,-0.244292
837990,-9.87227,1.02028,-0.158071
839005,-9.89383,1.04902,-0.172441
840005,-9.81479,1.07776,-0.323328
841007,-9.82916,1.07776,-0.215552
842017,-9.78605,1.07776,-0.215552
843020,-9.81479,1.04902,-0.244292
844022,-9.86509,1.09931,-0.0934058
845026,-9.87227,0.955613,-0.229922
846038,-9.87227,1.04902,-0.287402
847044,-9.85072,1.07057,-0.251477
848048,-9.77168,1.07057,-0.251477
849058,-9.81479,0.998723,-0.229922
850060,-9.84353,1.03465,-0.237107
851094,0.229922,11.5033,-190.347
852095,-9.90101,1.11368,-0.179626
853099,-9.86509,1.09213,-0.107776
854103,-9.82916,1.0562,-0.186812
855107,-9.83635,0.991538,-0.244292
856113,-9.84353,1.04183,-0.287402
857115,-9.92975,1.00591,-0.0431104
858119,-9.87946,1.02028,-0.301772
859121,-9.81479,1.11368,-0.172441
860122,-9.79323,0.984353,-0.100591
861130,-9.87227,1.02028,-0.229922
862132,-9.77168,1.0562,-0.251477
863136,-9.84353,1.04183,-0.0790356
864142,-9.82916,1.09931,-0.280217
865150,-9.87227,0.977168,-0.129331
866151,-9.8579,1.02028,-0.222737
867155,-9.8579,1.09213,-0.330513
868159,-9.85072,1.04183,-0.107776
869159,-9.83635,1.0562,-0.352068
870162,-9.82197,1.12087,-0.387993
871171,-9.8579,0.962798,0.0287402
872175,-9.85072,1.07057,-0.150886
873175,-9.8579,1.12087,-0.258662
874178,-9.82197,0.998723,0.0646655
875184,-9.87946,0.977168,-0.0502954
876192,-9.86509,1.07057,-0.0718506
877204,-9.8579,1.07057,-0.150886
878208,-9.87946,1.04902,-0.280217
879213,-9.85072,1.12087,-0.179626
880216,-9.8076,1.02028,-0.222737
881220,-9.79323,1.03465,-0.258662
882223,-9.8579,1.00591,-0.287402
883229,-9.80042,1.01309,-0.0143701
884233,-9.81479,1.07776,-0.100591
885237,-9.91538,1.07057,-0.186812
886247,-9.82916,1.09931,-0.193997
887251,-9.79323,1.08494,-0.251477
888255,-9.81479,1.08494,-0.330513
889259,-9.82197,1.06339,-0.222737
890260,-9.77168,1.02028,-0.107776
891264,-9.8579,1.03465,-0.158071
892268,-9.83635,1.08494,-0.301772
893272,-9.82197,1.04902,-0.445474
894277,-9.8076,1.14242,-0.323328
895278,-9.91538,1.04902,-0.387993
896281,-9.80042,1.11368,-0.308958
897285,-9.85072,1.11368,-0.186812
898291,-9.84353,1.07057,-0.229922
899295,-9.77886,1.0562,-0.237107
900307,-9.82916,1.07057,-0.330513
901330,-9.9082,1.07776,-0.323328
902334,-9.82916,1.07776,-0.201182
903338,-9.84353,1.04902,-0.431104
904342,-9.85072,1.07776,-0.287402
905350,-9.82916,1.04902,-0.229922
906354,-9.83635,1.04183,-0.172441
907358,-9.82197,1.00591,-0.143701
908363,-9.82916,1.01309,-0.179626
909367,-9.81479,1.06339,-0.222737
910369,-9.86509,1.07776,-0.273032
911372,-9.78605,1.11368,-0.172441
912378,-9.90101,1.01309,-0.215552
913381,-9.83635,1.07776,-0.244292
914384,-9.82197,1.01309,-0.186812
915388,-9.87946,1.04183,-0.208367
916396,-9.82197,1.01309,-0.186812
917400,-9.8076,1.04902,-0.201182
918403,-9.87227,1.08494,-0.222737
919407,-9.8579,1.07057,-0.244292
920411,-9.87227,1.08494,-0.229922
921427,-9.8076,1.04183,-0.287402
922435,-9.82916,1.09213,-0.179626
923443,-9.84353,1.06339,-0.237107
924446,-9.83635,1.03465,-0.380808
925448,-9.80042,0.977168,-0.143701
926456,-9.89383,1.0562,-0.208367
927462,-9.81479,1.04183,-0.323328
928464,-9.84353,1.08494,-0.165256
929468,-9.81479,1.09213,-0.237107
930470,-9.85072,1.06339,-0.273032
931483,-9.81479,1.0562,-0.165256
932495,-9.77168,1.01309,-0.193997
933499,-9.8579,1.08494,-0.179626
934502,-9.87227,1.0562,-0.229922
935506,-9.83635,1.04183,-0.150886
936512,-9.92975,1.06339,-0.273032
937514,-9.87946,1.0562,-0.229922
938520,-9.85072,1.06339,-0.186812
939520,-9.8076,1.06339,-0.258662
940524,-9.82916,0.998723,-0.258662
941528,-9.81479,1.07776,-0.179626
942533,-9.88664,1.07057,-0.251477
943536,-9.82197,1.03465,-0.179626
944540,-9.89383,1.01309,-0.251477
945546,-9.82197,1.04902,-0.237107
946553,-9.8076,0.991538,-0.165256
947553,-9.82197,1.06339,-0.208367
948557,-9.78605,1.0562,-0.222737
949569,-9.85072,1.07776,-0.244292
950581,-9.90101,1.06339,-0.229922
951585,-9.88664,0.984353,-0.208367
952590,-9.88664,1.00591,-0.280217
953596,-9.82916,1.03465,-0.222737
954597,-9.8076,1.06339,-0.294587
955601,-9.8579,1.02028,-0.222737
956606,-9.82197,1.08494,-0.186812
957608,-9.82197,1.03465,-0.186812
958612,-9.85072,1.04183,-0.100591
959615,-9.85072,1.00591,-0.150886
960619,-9.84353,1.08494,-0.251477
961627,-9.87227,1.00591,-0.208367
962639,-9.82916,1.07057,-0.237107
963656,-9.87227,1.03465,-0.237107
964656,-9.87946,1.12087,-0.244292
965662,-9.88664,1.0562,-0.208367
966666,-9.86509,1.0562,-0.222737
967666,-9.8579,0.991538,-0.215552
968670,-9.83635,1.04183,-0.165256
969674,-9.88664,1.04183,-0.215552
970678,-9.89383,1.04183,-0.143701
971688,-9.83635,0.984353,-0.172441
972692,-9.85072,1.09213,-0.222737
973700,-9.86509,0.991538,-0.136516
974706,-9.88664,1.01309,-0.143701
975707,-9.90101,0.991538,-0.208367
976715,-9.80042,0.991538,-0.136516
977719,-9.87227,1.00591,-0.158071
978725,-9.8579,1.04902,-0.172441
979726,-9.8076,1.02028,-0.0790356
980739,-9.9082,1.02028,-0.143701
981742,-9.87946,1.07057,-0.215552
982747,-9.87946,1.07776,-0.193997
983750,-9.84353,1.03465,-0.280217
984760,-9.90101,1.03465,-0.294587
985766,-9.87227,1.06339,-0.237107
986773,-9.85072,1.04183,-0.308958
987775,-9.77886,0.646655,-0.452659
988779,-9.95849,0.797541,-0.136516
989785,-9.86509,1.20709,-0.265847
990800,-9.82197,0.919688,-0.258662
991804,-9.87227,1.12087,-0.301772
992808,-9.81479,1.07776,-0.244292
993819,-9.83635,0.991538,-0.287402
994836,-9.79323,1.14242,-0.409548
995840,-9.80042,1.06339,-0.265847
996850,-9.83635,0.962798,-0.323328
997854,-9.93694,0.934058,-0.0862207
998864,-9.80042,1.00591,-0.107776
999866,-9.89383,0.926873,-0.0574805
1000868,-9.84353,1.07776,-0.208367
1001876,-9.85072,1.04183,-0.107776
1002877,-9.84353,1.03465,-0.172441
1003877,-9.82197,1.04183,-0.150886
1004882,-9.87227,1.03465,-0.150886
1005886,-9.81479,1.02028,-0.337698
1006893,-9.82197,1.08494,-0.308958
1007905,-9.79323,0.998723,-0.143701
1008908,-9.9082,1.07057,-0.165256
1009913,-9.88664,1.01309,-0.172441
1010918,-9.84353,1.02028,-0.193997
1011929,-9.8076,0.984353,-0.179626
1012933,-9.85072,1.09213,-0.265847
1013933,-9.88664,0.998723,-0.150886
1014936,-9.8579,1.09213,-0.193997
1015942,-9.86509,1.02746,-0.273032
1016951,-9.82916,1.06339,-0.179626
1017955,-9.79323,1.04902,-0.215552
1018961,-9.84353,1.07776,-0.244292
1019965,-9.84353,1.02746,-0.165256
1020970,-9.89383,1.08494,0.0934058
1021975,-9.92257,1.04183,-0.0790356
1022981,-9.95849,1.07057,0.100591
1023981,-9.84353,0.991538,-0.258662
1024984,-9.8579,1.07057,-0.294587
1025996,-9.8076,1.02028,-0.287402
1027007,-9.8579,1.06339,-0.179626
1028011,-9.87946,1.04183,-0.244292
1029016,-9.8076,1.07776,-0.229922
1030022,-9.86509,1.00591,-0.107776
1031026,-9.83635,0.969983,-0.179626
1032034,-9.9082,1.12805,-0.215552
1033044,-9.8579,1.12087,-0.294587
1034053,-9.90101,1.09931,-0.165256
1035059,-9.84353,1.17116,-0.172441
1036059,-9.87946,1.03465,-0.244292
1037066,-9.84353,1.0562,-0.316143
1038072,-9.85072,1.0562,-0.165256
1039076,-9.87227,0.955613,-0.280217
1040079,-9.84353,1.03465,-0.273032
1041079,-9.82916,1.06339,-0.0790356
1042089,-9.87946,0.977168,-0.136516
1043093,-9.81479,1.04183,-0.179626
1044098,-9.86509,1.09931,-0.165256
1045103,-9.86509,1.00591,-0.265847
1046105,-9.82916,1.04902,-0.136516
1047113,-9.80042,1.06339,-0.122146
1048114,-9.84353,1.06339,-0.0862207
1049120,-9.79323,1.06339,-0.201182
1050121,-9.84353,1.04183,-0.193997
1051127,-9.84353,1.01309,-0.100591
1052136,-9.87227,1.00591,-0.172441
1053146,-9.88664,1.02746,-0.186812
1054151,-9.82197,1.04183,-0.344883
1055156,-9.81479,1.07057,-0.244292
1056156,-9.87227,0.962798,-0.186812
1057161,-9.90101,1.03465,-0.229922
1058165,-9.8579,0.984353,-0.208367
1059168,-9.80042,1.0562,-0.129331
1060174,-9.88664,1.00591,-0.251477
1061179,-9.90101,1.01309,-0.0862207
1062188,-9.82197,1.06339,-0.215552
1063193,-9.84353,1.09213,-0.258662
1064194,-9.85072,1.07057,-0.100591
1065198,-9.83635,1.1065,-0.337698
1066201,-9.8579,1.11368,-0.287402
1067218,-9.82197,1.06339,-0.273032
1068224,-9.75731,1.09931,-0.344883
1069229,-9.83635,1.0562,-0.387993
1070233,-9.87946,1.09213,-0.280217
1071233,-9.84353,1.07776,-0.294587
1072241,-9.9082,0.941243,-0.208367
1073241,-9.8579,0.984353,-0.222737
1074245,-9.84353,1.02746,-0.193997
1075250,-9.91538,1.01309,-0.265847
1076250,-9.82916,1.08494,-0.136516
1077257,-9.84353,1.0562,-0.0574805
1078258,-9.81479,1.07776,-0.186812
1079264,-9.84353,1.0562,-0.193997
1080264,-9.87946,1.09931,-0.158071
1081267,-9.8579,1.09931,-0.215552
1082275,-9.8579,1.04183,-0.201182
1083277,-9.82197,1.09213,-0.201182
1084281,-9.83635,1.03465,-0.215552
1085285,-9.8579,1.03465,-0.265847
1086285,-9.85072,1.08494,-0.179626
1087293,0.229922,11.5033,-190.347
1088294,-9.90101,0.969983,-0.208367
1089296,-9.80042,1.09931,-0.208367
1090302,-9.83635,1.01309,-0.165256
1091306,-9.86509,1.02746,-0.366438
1092308,-9.82916,1.13524,-0.287402
1093313,-9.85072,1.08494,-0.294587
1094319,-9.87227,1.03465,-0.244292
1095325,-9.8579,1.00591,-0.201182
1096330,-9.8579,1.08494,-0.229922
1097334,-9.82197,0.984353,-0.222737
1098336,-9.86509,0.969983,-0.258662
1099341,-9.78605,1.15679,-0.129331
1100345,-9.82916,0.912502,-0.244292
1101355,-9.82916,1.12805,-0.273032
1102363,-9.83635,1.12087,-0.208367
1103365,-9.89383,0.869392,-0.258662
1104369,-9.82916,1.0562,-0.208367
1105375,-9.85072,1.04902,-0.222737
1106399,0.229922,11.5033,-190.347
1107404,-9.79323,1.1999,-0.208367
1108404,-9.79323,1.01309,-0.222737
1109408,-9.89383,0.991538,-0.244292
1110412,-9.83635,1.14242,-0.222737
1111420,-9.83635,0.998723,-0.158071
1112424,-9.80042,1.03465,-0.193997
1113427,-9.86509,1.13524,-0.251477
1114427,-9.82916,1.02028,-0.201182
1115431,-9.8076,1.04902,-0.308958
1116441,-9.85072,1.08494,-0.258662
1117457,-9.84353,0.948428,-0.251477
1118457,-9.85072,1.12087,-0.215552
1119469,-9.87946,1.01309,-0.287402
1120469,-9.8579,1.00591,-0.244292
1121475,-9.85072,1.02028,-0.273032
1122479,-9.8579,1.03465,-0.193997
1123481,-9.85072,0.998723,-0.222737
1124483,-9.8579,1.02028,-0.237107
1125488,-9.84353,1.02746,-0.179626
1126495,-9.84353,1.07776,-0.186812
1127507,-9.83635,1.04183,-0.237107
1128511,-9.87227,1.09213,-0.193997
1129514,-9.83635,1.03465,-0.179626
1130518,-9.82197,1.04183,-0.229922
1131526,-9.82916,1.07057,-0.186812
1132526,-9.87946,1.00591,-0.193997
1133530,-9.81479,1.09931,-0.201182
1134539,-9.80042,1.08494,-0.258662
1135540,-9.87227,1.0562,-0.258662
1136547,-9.84353,1.04902,-0.208367
1137552,-9.88664,1.09931,-0.244292
1138571,-9.83635,1.08494,-0.287402
1139574,-9.88664,1.04902,-0.201182
1140578,-9.8076,1.07776,-0.237107
1141582,-9.83635,0.998723,-0.215552
1142588,-9.82916,1.03465,-0.229922
1143592,-9.82916,0.998723,-0.193997
1144596,-9.85072,1.02746,-0.215552
1145602,-9.82916,0.998723,-0.193997
1146610,-9.82197,1.06339,-0.229922
1147613,-9.86509,1.1065,-0.172441
1148625,-9.8579,0.955613,-0.258662
1149626,-9.83635,1.09213,-0.222737
1150629,-9.86509,1.02028,-0.193997
1151638,-9.90101,0.991538,-0.179626
1152642,-9.86509,1.16398,-0.179626
1153648,-9.87227,0.962798,-0.201182
1154652,-9.89383,0.977168,-0.158071
1155661,-9.8579,1.09213,-0.244292
1156667,-9.88664,0.962798,-0.193997
1157671,-9.87946,1.07776,-0.193997
1158674,-9.85072,1.09213,-0.251477
1159674,-9.88664,1.02028,-0.208367
1160680,-9.84353,1.09213,-0.244292
1161688,-9.83635,1.04183,-0.244292
1162692,-9.86509,0.991538,-0.208367
1163694,-9.87946,1.11368,-0.208367
1164699,-9.86509,0.998723,-0.229922
1165699,-9.83635,1.02746,-0.258662
1166707,-9.89383,1.09213,-0.244292
1167711,-9.8076,1.03465,-0.237107
1168712,-9.82197,1.03465,-0.237107
1169729,-9.88664,1.08494,-0.251477
1170733,-9.79323,0.977168,-0.208367
1171743,-9.83635,1.02746,-0.158071
1172747,-9.85072,1.0562,-0.258662
1173753,-9.82197,1.04183,-0.215552
1174757,-9.84353,1.04902,-0.215552
1175762,-9.81479,1.17835,-0.244292
1176770,-9.82197,1.02746,-0.251477
1177772,-9.8579,1.01309,-0.208367
1178775,-9.81479,1.13524,-0.251477
1179776,-9.87946,1.03465,-0.193997
1180780,-9.79323,1.02746,-0.222737
1181782,-9.78605,1.14961,-0.229922
1182788,-9.81479,1.07057,-0.215552
1183790,-9.8579,1.02746,-0.265847
1184794,-9.81479,1.0562,-0.215552
1185798,-9.84353,1.06339,-0.251477
1186806,-9.83635,1.0562,-0.179626
1187806,-9.8579,1.01309,-0.222737
1188810,-9.82197,1.04902,-0.208367
1189820,-9.84353,1.0562,-0.244292
1190824,-9.83635,1.06339,-0.186812
1191830,-9.86509,1.04902,-0.193997
1192834,-9.87946,1.02746,-0.186812
1193838,-9.80042,1.02746,-0.222737
1194842,-9.87946,1.02746,-0.258662
1195846,-9.83635,1.06339,-0.237107
1196852,-9.82197,1.0562,-0.179626
1197854,-9.9082,1.09931,-0.229922
1198856,-9.86509,1.09931,-0.237107
1199859,-9.78605,0.998723,-0.229922
1200873,-9.82197,1.12087,-0.165256
1201879,-9.82197,1.01309,-0.229922
1202883,-9.85072,1.00591,-0.215552
1203887,-9.87227,1.07776,-0.193997
1204891,-9.87946,0.969983,-0.280217
1205897,-9.85072,1.02028,-0.244292
1206901,-9.79323,1.13524,-0.208367
1207905,-9.85072,0.969983,-0.215552
1208906,-9.85072,0.926873,-0.0431104
1209909,-9.89383,1.13524,-0.0646655
1210912,-9.82916,1.15679,-0.0718506
1211920,-9.82197,0.984353,-0.172441
1212926,-9.87227,1.04902,-0.158071
1213929,-9.82197,1.15679,-0.287402
1214929,-9.8579,0.934058,-0.251477
1215934,-9.82197,1.0562,-0.215552
1216942,-9.8076,1.1065,-0.251477
1217946,-9.78605,1.04183,-0.222737
1218950,-9.85072,1.06339,-0.294587
1219950,-9.82197,1.14961,-0.229922
1220954,-9.77886,1.09931,-0.251477
1221958,-9.83635,1.07776,-0.280217
1222963,-9.88664,1.12087,-0.222737
1223974,-9.85072,0.998723,-0.179626
1224978,-9.90101,1.06339,-0.179626
1225982,-9.83635,1.04902,-0.287402
1226990,-9.87227,1.03465,-0.201182
1227996,-9.79323,1.11368,-0.186812
1229000,-9.82197,1.1065,-0.179626
1230016,-9.85072,1.1065,-0.114961
1231044,0.229922,11.5033,-190.347
1232048,-9.81479,1.00591,-0.258662
1233052,-9.87946,0.991538,-0.150886
1234054,-9.87227,1.03465,-0.258662
1235058,-9.84353,1.02028,-0.280217
1236062,-9.83635,1.11368,-0.193997
1237070,-9.87946,1.01309,-0.258662
1238078,-9.82916,1.07057,-0.165256
1239082,-9.85072,1.12087,-0.179626
1240082,-9.82916,1.04183,-0.301772
1241093,-9.87946,1.1065,-0.150886
1242096,-9.8076,1.09931,-0.172441
1243100,-9.81479,1.01309,-0.229922
1244101,-9.8579,1.04183,-0.186812
1245105,-9.85072,0.984353,-0.215552
1246111,-9.87227,1.15679,-0.222737
1247119,-9.8579,1.09931,-0.208367
1248130,-9.83635,1.19272,-0.179626
1249135,-9.8579,1.04902,-0.323328
1250137,-9.8579,1.02028,-0.251477
1251140,-9.86509,1.19272,-0.237107
1252144,-9.92975,0.869392,-0.380808
1253148,-9.90101,0.869392,-0.215552
1254152,-9.84353,1.09931,-0.158071
1255156,-9.87227,1.06339,-0.244292
1256158,-9.82916,1.08494,-0.280217
1257164,-9.85072,1.12805,-0.294587
1258168,-9.92257,1.0562,-0.229922
1259171,-9.81479,1.08494,-0.222737
1260183,-9.82197,1.11368,-0.265847
1261195,-9.82197,0.998723,-0.229922
1262196,-9.83635,1.02028,-0.273032
1263201,-9.83635,1.03465,-0.201182
1264203,-9.88664,0.912502,-0.222737
1265205,-9.88664,0.912502,-0.265847
1266208,-9.8579,1.04902,-0.158071
1267216,-9.80042,0.977168,-0.201182
1268219,-9.81479,1.11368,-0.251477
1269223,-9.85072,1.11368,-0.244292
1270227,-9.86509,1.11368,-0.308958
1271228,-9.80042,1.0562,-0.215552
1272249,0.229922,11.5033,-190.347
1273249,-9.87227,1.00591,-0.387993
1274253,-9.84353,1.09931,-0.294587
1275259,-9.83635,1.06339,-0.280217
1276263,-9.86509,1.04902,-0.416733
1277271,-9.81479,1.12805,-0.330513
1278280,-9.87946,1.08494,-0.373623
1279285,-9.86509,1.0562,-0.287402
1280287,-9.86509,1.07776,-0.186812
1281291,-9.78605,1.11368,-0.215552
1282303,-9.87946,1.09213,-0.273032
1283307,-9.90101,0.991538,-0.273032
1284311,-9.82916,1.09931,-0.229922
1285314,-9.87946,1.04183,-0.265847
1286318,-9.90101,1.06339,-0.222737
1287326,-9.82197,1.1065,-0.316143
1288330,-9.86509,1.04902,-0.308958
1289332,-9.85072,1.07057,-0.165256
1290347,-9.89383,0.919688,-0.179626
1291357,-9.87227,1.02028,-0.165256
1292359,-9.83635,1.12087,-0.186812
1293362,-9.90101,0.984353,-0.150886
1294367,-9.85072,1.04902,-0.122146
1295369,-9.8579,1.04902,-0.100591
1296373,-9.8579,1.0562,0.0502954
1297381,-9.8579,0.998723,-0.0287402
1298385,-9.82197,1.07057,0.0215552
1299385,-9.8579,1.07057,-0.100591
1300389,-9.92257,1.0562,-0.193997
1301392,-9.87227,1.02028,-0.265847
1302396,-9.81479,1.16398,-0.438289
1303399,-9.88664,1.0562,-0.0287402
1304406,-9.84353,0.955613,-0.323328
1305407,-9.83635,1.08494,-0.107776
1306411,-9.82197,1.15679,0.165256
1307413,-9.87227,1.07776,-0.229922
1308419,-9.88664,1.02746,-0.114961
1309430,-9.8076,1.07057,-0.0934058
1310434,-9.88664,1.02028,-0.129331
1311438,-9.84353,1.07057,-0.0287402
1312448,-9.85072,1.0562,-0.0862207
1313460,-9.82916,0.969983,-0.222737
1314464,-9.75012,1.08494,-0.193997
1315465,-9.87227,1.00591,-0.201182
1316469,-9.83635,1.1065,-0.294587
1317477,-9.8076,1.09213,-0.229922
1318481,-9.84353,1.07057,-0.215552
1319483,-9.85072,1.03465,-0.366438
1320487,-9.82916,1.07776,-0.222737
1321491,-9.8579,0.912502,-0.201182
1322493,-9.84353,1.09931,-0.179626
1323498,-9.9082,1.01309,-0.0934058
1324498,-9.87227,1.04183,-0.158071
1325500,-9.87946,1.12805,-0.186812
1326504,-9.85072,1.04902,-0.172441
1327514,-9.86509,0.890947,-0.287402
1328523,-9.8579,1.04183,-0.193997
1329526,-9.87227,0.962798,-0.186812
1330532,-9.84353,0.912502,-0.294587
1331548,-9.90101,1.07057,-0.193997
1332554,-9.90101,0.962798,-0.359253
1333555,-9.84353,1.13524,-0.373623
1334556,-9.86509,1.03465,-0.273032
1335560,-9.82197,1.11368,-0.395178
1336564,-9.77886,1.12805,-0.380808
1337572,-9.80042,1.09213,-0.265847
1338578,-9.84353,1.04902,-0.265847
1339580,-9.8076,1.06339,-0.179626
1340580,-9.84353,1.02746,-0.208367
1341586,-9.83635,0.991538,-0.287402
1342592,-9.82197,1.07057,-0.237107
1343592,-9.82916,1.02746,-0.258662
1344595,-9.84353,1.07057,-0.287402
1345598,-9.84353,1.04902,-0.122146
1346608,-9.82916,1.06339,-0.165256
1347613,-9.8579,1.07776,-0.237107
1348613,-9.81479,1.07057,-0.150886
1349619,-9.89383,1.04183,-0.215552
1350622,-9.81479,1.04902,-0.265847
1351626,-9.86509,1.07776,-0.280217
1352634,-9.87227,1.02028,-0.265847
1353636,-9.8579,1.04183,-0.222737
1354639,-9.82197,1.04183,-0.201182
1355643,-9.8579,1.0562,-0.179626
1356649,-9.86509,1.12805,-0.244292
1357653,-9.79323,1.0562,-0.165256
1358657,-9.88664,1.07057,-0.280217
1359661,-9.77886,1.08494,-0.244292
1360667,-9.82916,1.04183,-0.273032
1361670,-9.85072,1.0562,-0.287402
1362678,-9.82916,1.04902,-0.222737
1363688,-9.82197,1.02028,-0.179626
1364702,-9.81479,1.09213,-0.244292
1365702,-9.85072,1.09931,-0.193997
1366723,0.229922,11.5033,-190.347
1367729,-9.81479,1.12087,-0.186812
1368733,-9.85072,0.969983,-0.186812
1369737,-9.84353,1.1065,-0.114961
1370741,-9.82916,1.07776,-0.215552
1371751,-9.78605,0.998723,-0.237107
1372755,-9.80042,1.16398,-0.280217
1373755,-9.88664,0.969983,-0.316143
1374759,-9.87946,1.09213,-0.201182
1375762,-9.85072,1.02028,-0.208367
1376766,-9.82197,1.07776,-0.193997
1377770,-9.82916,1.0562,-0.265847
1378774,-9.88664,1.01309,-0.301772
1379778,-9.81479,1.02746,-0.323328
1380785,-9.82197,1.06339,-0.373623
1381789,-9.84353,1.09931,-0.330513
1382801,-9.89383,1.0562,-0.337698
1383804,-9.8579,1.00591,-0.208367
1384804,-9.8076,1.07057,-0.265847
1385807,-9.8579,1.03465,-0.344883
1386816,-9.79323,1.11368,-0.251477
1387820,-9.81479,1.12805,-0.445474
1388825,-9.82197,1.06339,-0.201182
1389825,-9.81479,1.04902,-0.0574805
1390829,-9.82916,1.0562,-0.0862207
1391838,-9.80042,0.862207,-0.122146
1392842,-9.85072,1.0562,-0.0502954
1393848,-9.83635,0.955613,0.0431104
1394852,-9.81479,0.977168,-0.143701
1395860,-9.84353,0.912502,-0.100591
1396868,-9.87227,0.934058,0.0359253
1397874,-9.85072,1.08494,-0.158071
1398874,-9.84353,1.09213,-0.150886
1399878,-9.79323,1.02746,-0.337698
1400883,-9.85072,1.12805,-0.179626
1401891,-9.86509,0.969983,-0.237107
1402895,-9.81479,1.09213,-0.280217
1403898,-9.84353,1.09931,-0.208367
1404905,-9.87227,1.01309,-0.258662
1405908,-9.83635,1.07057,-0.201182
1406922,-9.81479,1.03465,-0.201182
1407926,-9.84353,1.0562,-0.294587
1408932,-9.91538,0.948428,-0.201182
1409936,-9.86509,1.12805,-0.186812
1410940,-9.87227,1.03465,-0.344883
1411949,-9.84353,1.07776,-0.237107
1412956,-9.82197,1.1065,-0.215552
1413964,-9.87946,1.09931,-0.122146
1414964,-9.82916,1.13524,-0.158071
1415970,-9.87227,1.01309,-0.287402
1416976,-9.85072,1.14242,-0.244292
1417986,-9.82916,0.991538,-0.265847
1418989,-9.81479,1.04902,-0.201182
1419995,-9.8579,0.969983,-0.330513
1420999,-9.86509,1.00591,-0.323328
1422007,-9.79323,1.14242,-0.179626
1423012,-9.77168,1.04902,-0.208367
1424028,-9.88664,1.00591,-0.294587
1425044,-9.8076,1.04902,-0.172441
1426055,-9.88664,0.941243,-0.150886
1427056,-9.89383,1.1065,-0.258662
1428056,-9.84353,1.04902,-0.201182
1429058,-9.8076,0.984353,-0.416733
1430062,-9.8076,1.08494,0.0359253
1431068,-9.9082,0.941243,-0.0646655
1432077,-9.82916,0.948428,-0.0646655
1433077,-9.9082,1.02028,-0.0934058
1434077,-9.82916,1.04183,-0.0718506
1435081,-9.85072,1.02028,-0.0502954
1436088,-9.87946,0.926873,-0.129331
1437092,-9.74294,0.826282,-0.193997
1438095,-9.82197,1.07057,-0.237107
1439098,-9.86509,0.991538,-0.165256
1440102,-9.84353,0.969983,-0.273032
1441106,-9.83635,1.02746,-0.150886
1442108,-9.85072,1.08494,-0.193997
1443112,-9.87227,1.02028,-0.273032
1444114,-9.80042,1.08494,-0.0287402
1445118,-9.88664,1.04183,-0.100591
1446124,-9.8579,0.969983,0.0215552
1447129,-9.86509,1.04902,-0.165256
1448146,-9.85072,0.998723,-0.186812
1449151,-9.8076,1.08494,-0.186812
1450156,-9.81479,1.08494,-0.316143
1451156,-9.88664,1.03465,-0.158071
1452165,-9.82916,1.07776,-0.215552
1453174,-9.79323,1.04902,-0.244292
1454179,-9.82916,1.12087,-0.229922
1455182,-9.8076,1.11368,-0.179626
1456186,-9.85072,1.06339,-0.294587
1457195,-9.77886,1.02746,-0.330513
1458207,-9.80042,1.08494,-0.330513
1459207,-9.85072,1.02746,-0.301772
1460210,-9.80042,1.0562,-0.280217
1461211,-9.78605,1.04902,-0.251477
1462211,-9.8076,1.02746,-0.201182
1463216,-9.85072,1.04902,-0.215552
1464222,-9.85072,1.04902,-0.208367
1465226,-9.81479,1.03465,-0.143701
1466226,-9.78605,1.08494,-0.229922
1467230,-9.85072,1.03465,-0.244292
1468237,-9.88664,0.998723,-0.143701
1469240,-9.82916,1.0562,-0.237107
1470249,-9.87227,1.09213,-0.459844
1471256,-9.87227,1.02746,-0.222737
1472264,-9.82197,1.1999,-0.244292
1473264,-9.85072,1.0562,-0.208367
1474264,-9.83635,0.969983,-0.100591
1475270,-9.86509,1.04183,-0.0287402
1476274,-9.77886,1.16398,-0.337698
1477285,-9.88664,1.03465,-0.237107
1478285,-9.88664,1.02746,-0.366438
1479292,-9.86509,1.04183,-0.416733
1480297,-9.77886,1.1065,-0.201182
1481301,-9.84353,1.02746,-0.100591
1482301,-9.84353,0.991538,-0.107776
1483305,-9.86509,1.04902,-0.215552
1484309,-9.80042,1.09213,-0.0215552
1485313,-9.86509,1.04183,-0.179626
1486320,-9.90101,1.0562,-0.201182
1487325,-9.87946,1.06339,-0.251477
1488329,-9.81479,1.04902,-0.193997
1489335,0.229922,11.5033,-190.347
1490337,-9.8579,1.11368,-0.330513
1491341,-9.92975,1.02746,-0.251477
1492349,-9.92257,1.02028,-0.215552
1493353,-9.8579,1.08494,-0.201182
1494359,-9.89383,0.969983,-0.179626
1495363,-9.86509,1.04183,-0.107776
1496367,-9.77168,1.12087,-0.301772
1497379,-9.83635,0.984353,-0.158071
1498382,-9.91538,1.17116,-0.431104
1499390,-9.84353,1.07057,-0.294587
1500402,-9.84353,1.02746,-0.330513
1501408,-9.88664,1.09213,-0.201182
1502415,-9.75731,1.12087,-0.0646655
1503417,-9.77886,1.04183,-0.244292
1504421,-9.88664,1.13524,-0.251477
1505432,-9.88664,1.16398,-0.265847
1506433,-9.88664,1.03465,-0.208367
1507437,-9.9082,0.991538,-0.280217
1508437,-9.91538,1.11368,-0.100591
1509442,-9.84353,1.02028,-0.222737
1510445,-9.78605,1.09213,-0.129331
1511449,-9.87946,0.984353,-0.179626
1512459,-9.8579,1.09931,-0.150886
1513463,-9.83635,0.912502,-0.0431104
1514468,-9.81479,1.06339,-0.0143701
1515471,-9.83635,1.09931,-0.229922
1516474,-9.88664,1.02028,-0.0215552
1517485,-9.8579,1.0562,-0.186812
1518488,-9.77886,1.08494,-0.352068
1519500,-9.78605,1.06339,-0.165256
1520506,-9.8579,1.13524,-0.265847
1521508,-9.8579,1.02028,-0.172441
1522517,-9.87227,1.04183,-0.122146
1523526,-9.82197,1.04902,-0.150886
1524528,-9.86509,1.12087,-0.208367
1525532,-9.87227,1.02028,0.0574805
1526536,-9.82197,1.14242,-0.201182
1527544,-9.87227,1.04183,-0.122146
1528548,-9.83635,1.07776,-0.158071
1529552,-9.8076,1.04902,-0.229922
1530562,-9.83635,0.962798,-0.129331
1531568,-9.83635,1.08494,-0.165256
1532572,-9.89383,1.00591,-0.158071
1533575,-9.82916,1.04183,-0.330513
1534582,-9.92975,1.00591,-0.107776
1535591,-9.98723,1.0562,-0.301772
1536593,-9.83635,1.07057,-0.165256
1537601,-9.81479,1.07057,-0.179626
1538607,-9.85072,0.962798,-0.0502954
1539618,-9.83635,1.1065,-0.0862207
1540621,-9.85072,0.998723,-0.0359253
1541622,-9.84353,1.08494,-0.373623
1542628,-9.8579,1.09213,-0.244292
1543632,-9.93694,1.02028,-0.344883
1544636,-9.80042,1.09931,-0.308958
1545641,-9.82916,1.03465,-0.323328
1546645,-9.83635,1.08494,-0.395178
1547651,-9.80042,1.06339,-0.237107
1548663,-9.88664,1.09213,-0.114961
1549669,-9.82197,0.969983,0.122146
1550682,-9.80042,1.07057,-0.179626
1551684,-9.84353,1.1065,-0.409548
1552691,-9.84353,1.03465,0
1553703,-9.84353,1.07057,-0.0862207
1554707,-9.86509,1.0562,-0.244292
1555711,-9.82197,0.991538,-0.158071
1556712,-9.79323,1.02746,-0.129331
1557720,-9.83635,1.02028,-0.107776
1558723,-9.75012,1.06339,-0.179626
1559725,-9.8579,1.01309,-0.201182
1560727,-9.82197,1.11368,-0.179626
1561730,-9.85072,1.07776,-0.352068
1562738,-9.8076,1.04902,-0.208367
1563741,-9.87227,1.03465,-0.0502954
1564743,-9.83635,1.1065,-0.237107
1565747,-9.81479,0.984353,-0.0502954
1566751,-9.82197,1.02746,-0.0215552
1567759,-9.82197,1.07057,-0.258662
1568765,-9.82916,0.991538,-0.244292
1569769,-9.8579,1.02746,-0.366438
1570773,-9.77168,1.1065,-0.316143
1571779,-9.84353,1.04183,-0.136516
1572783,-9.84353,1.0562,-0.265847
1573795,-9.85072,1.07776,-0.287402
1574801,-9.77886,1.02028,-0.258662
1575807,-9.82916,1.08494,-0.395178
1576810,-9.86509,1.02028,-0.136516
1577818,-9.90101,0.977168,-0.150886
1578822,-9.84353,1.04183,-0.316143
1579828,-9.83635,1.04183,-0.244292
1580832,-9.84353,1.0562,-0.287402
1581838,-9.92257,1.04902,-0.301772
1582847,-9.86509,1.09931,-0.222737
1583851,-9.9082,1.04902,-0.294587
1584852,-9.78605,1.04183,-0.280217
1585856,-9.8579,1.07057,-0.158071
1586862,-9.82197,1.1065,0.0646655
1587865,-9.87227,1.07057,-0.158071
1588867,-9.90101,1.04183,-0.100591
1589878,-9.88664,1.09931,0.0502954
1590882,-9.81479,0.998723,-0.0287402
1591898,-9.84353,1.00591,-0.150886
1592901,-9.88664,1.11368,-0.265847
1593905,-9.77886,1.04183,-0.229922
1594909,-9.8579,1.00591,-0.100591
1595912,-9.84353,1.09931,-0.237107
1596914,-9.8076,1.00591,-0.208367
1597920,-9.83635,1.1065,-0.114961
1598924,-9.85072,1.11368,-0.287402
1599926,-9.88664,1.02746,-0.193997
1600928,-9.84353,1.09213,-0.122146
1601941,-9.8076,1.04183,-0.0431104
1602958,-9.85072,1.02746,-0.0431104
1603961,-9.89383,1.06339,-0.136516
1604967,-9.87946,0.962798,-0.0502954
1605982,-9.83635,1.0562,-0.129331
1606986,-9.82916,1.0562,-0.215552
1607990,-9.87227,0.991538,-0.122146
1608994,-9.86509,1.06339,-0.122146
1609998,-9.83635,1.0562,-0.122146
1611002,-9.82197,0.998723,-0.165256
1612006,-9.83635,1.07057,-0.316143
1613009,-9.90101,1.03465,-0.193997
1614013,-9.8076,1.04902,-0.208367
1615017,-9.84353,1.01309,-0.172441
1616021,-9.77168,1.09931,-0.402363
1617022,-9.87946,1.0562,-0.416733
1618032,-9.85072,1.01309,-0.179626
1619035,-9.82916,1.04183,-0.165256
1620039,-9.82197,1.04902,-0.0646655
1621049,-9.8579,1.02746,-0.158071
1622070,0.229922,11.5033,-190.347
1623086,-9.84353,1.09213,-0.308958
1624112,0.229922,11.5033,-190.347
1625112,-9.87227,1.04902,-0.251477
1626114,-9.85072,1.07057,-0.222737
1627122,-9.84353,0.998723,-0.244292
1628126,-9.78605,1.08494,-0.222737
1629128,-9.84353,1.07057,-0.280217
1630136,-9.84353,1.02746,-0.172441
1631148,-9.82197,1.04902,-0.273032
1632154,-9.87227,1.0562,-0.222737
1633158,-9.8076,1.12805,-0.237107
1634168,-9.84353,1.1065,-0.201182
1635170,-9.81479,1.01309,-0.165256
1636173,-9.88664,1.02028,-0.0287402
1637181,-9.86509,1.02746,-0.129331
1638185,-9.90101,1.03465,-0.409548
1639189,-9.88664,1.0562,-0.395178
1640199,-9.85072,1.08494,-0.265847
1641205,-9.8579,1.12087,-0.244292
1642213,-9.8579,1.07057,-0.179626
1643226,-9.84353,1.03465,-0.0790356
1644227,-9.85072,1.12087,-0.208367
1645238,-9.86509,1.02028,-0.208367
1646242,-9.8579,1.04902,-0.251477
1647250,-9.82916,1.0562,-0.330513
1648254,-9.85072,1.06339,-0.186812
1649260,-9.82197,1.1065,-0.208367
1650263,-9.82197,1.03465,-0.158071
1651267,-9.84353,1.06339,-0.222737
1652273,-9.8076,1.07057,-0.129331
1653277,-9.87227,1.02746,-0.0574805
1654293,-9.88664,0.984353,-0.0431104
1655305,-9.8076,1.06339,-0.244292
1656312,-9.91538,1.07057,-0.380808
1657320,-9.84353,1.04902,-0.186812
1658332,-9.87946,1.09213,-0.186812
1659347,-9.87946,1.04902,-0.193997
1660351,-9.80042,1.08494,-0.172441
1661355,-9.87946,1.04902,-0.258662
1662358,-9.82197,1.02028,-0.258662
1663364,-9.88664,1.08494,-0.273032
1664368,-9.8579,1.03465,-0.179626
1665369,-9.83635,0.948428,-0.136516
1666372,-9.86509,1.06339,-0.237107
1667382,-9.84353,1.04902,-0.251477
1668386,-9.82916,1.0562,-0.208367
1669390,-9.78605,1.02028,-0.222737
1670392,-9.84353,1.06339,-0.237107
1671396,-9.91538,0.998723,-0.179626
1672404,-9.8579,1.02746,-0.129331
1673407,-9.82197,1.02028,-0.193997
1674409,-9.80042,1.08494,-0.237107
1675412,-9.78605,1.07057,-0.215552
1676419,-9.84353,1.1065,-0.186812
1677426,-9.82916,1.09213,-0.143701
1678428,-9.86509,1.12087,-0.215552
1679430,-9.81479,1.07776,-0.237107
1680434,-9.83635,1.03465,-0.323328
1681438,-9.89383,1.06339,-0.273032
1682446,-9.89383,1.09213,-0.186812
1683450,-9.88664,1.03465,-0.150886
1684453,-9.87946,1.09931,-0.294587
1685465,-9.8579,0.969983,-0.0431104
1686469,-9.85072,1.01309,-0.215552
1687472,-9.86509,0.984353,-0.352068
1688474,-9.88664,1.09213,-0.258662
1689480,-9.8579,1.04902,-0.0287402
1690484,-9.8579,0.998723,-0.237107
1691486,-9.85072,1.01309,-0.143701
1692494,-9.9082,1.01309,-0.229922
1693500,-9.86509,1.04183,-0.136516
1694508,-9.84353,1.11368,-0.193997
1695524,-9.89383,1.02746,-0.165256
1696552,0.229922,11.5033,-190.347
1697554,-9.8579,1.04183,-0.193997
1698557,-9.8579,0.984353,-0.122146
1699561,-9.79323,1.06339,-0.172441
1700567,-9.81479,1.00591,-0.165256
1701569,-9.80042,1.00591,-0.208367
1702577,-9.81479,1.09213,-0.237107
1703581,-9.82197,1.09213,-0.222737
1704583,-9.87227,1.0562,-0.258662
1705587,-9.79323,1.09931,-0.244292
1706599,-9.86509,1.04902,-0.186812
1707604,-9.84353,1.07776,-0.237107
1708608,-9.91538,1.09213,-0.179626
1709611,-9.85072,1.04902,-0.222737
1710615,-9.87946,1.01309,-0.193997
1711621,-9.84353,1.04183,-0.237107
1712625,-9.83635,1.04902,-0.229922
1713629,-9.8579,0.984353,-0.208367
1714632,-9.86509,0.955613,-0.237107
1715645,-9.84353,1.07057,-0.172441
1716648,-9.82197,1.04902,-0.208367
1717655,-9.83635,1.09931,-0.215552
1718661,-9.89383,1.07057,-0.251477
1719665,-9.8076,1.0562,-0.215552
1720668,-9.82916,1.04902,-0.114961
1721681,-9.78605,1.0562,-0.172441
1722691,-9.82197,1.12087,-0.237107
1723696,-9.82197,1.04183,-0.222737
1724701,-9.81479,1.04183,-0.237107
1725710,-9.8579,1.01309,-0.179626
1726713,-9.87946,1.09213,-0.222737
1727718,-9.8076,1.04902,-0.201182
1728722,-9.87227,1.06339,-0.201182
1729739,-9.85072,1.03465,-0.193997
1730754,-9.86509,1.03465,-0.193997
1731767,-9.86509,1.01309,-0.244292
1732775,-9.87227,1.07776,-0.193997
1733781,-9.87227,1.07057,-0.201182
1734785,-9.82916,1.0562,-0.237107
1735788,-9.81479,1.07057,-0.193997
1736800,-9.82916,1.0562,-0.229922
1737808,-9.81479,1.07776,-0.208367
1738812,-9.77886,1.0562,-0.222737
1739814,-9.8076,1.04183,-0.244292
1740820,-9.86509,1.04902,-0.172441
1741833,-9.83635,1.09931,-0.294587
1742839,-9.88664,1.06339,-0.201182
1743847,-9.82916,1.04902,-0.201182
1744853,-9.83635,1.0562,-0.158071
1745857,-9.84353,1.02746,-0.265847
1746870,-9.78605,1.03465,-0.193997
1747879,-9.85072,1.06339,-0.222737
1748883,-9.8076,1.04902,-0.308958
1749900,-9.8076,1.07776,-0.208367
1750915,-9.90101,1.01309,-0.229922
1751919,-9.83635,1.04902,-0.193997
1752927,-9.77168,1.07776,-0.201182
1753931,-9.89383,0.998723,-0.179626
1754937,-9.82197,1.0562,-0.215552
1755941,-9.82197,1.07776,-0.136516
1756944,-9.80042,1.02028,-0.237107
1757946,-9.84353,1.02746,-0.208367
1758948,-9.82197,1.07776,-0.208367
1759950,-9.81479,1.06339,-0.186812
1760957,-9.82197,0.984353,-0.251477
1761968,-9.81479,1.06339,-0.251477
1762976,-9.8076,1.0562,-0.158071
1763980,-9.83635,1.0562,-0.287402
1764984,-9.77168,1.08494,-0.179626
1765988,-9.82197,1.02028,-0.158071
1767005,-9.81479,1.01309,-0.222737
1768008,-9.89383,1.0562,-0.193997
1769034,-9.86509,1.04902,-0.229922
1770038,-9.86509,1.04902,-0.222737
1771042,-9.82197,1.07057,-0.258662
1772045,-9.87227,1.03465,-0.287402
1773051,-9.82916,1.04183,-0.222737
1774056,-9.86509,0.998723,-0.158071
1775058,-9.8076,1.07057,-0.222737
1776063,-9.86509,1.09213,-0.208367
1777069,-9.84353,1.12087,-0.208367
1778071,-9.82916,1.09931,-0.158071
1779087,-9.83635,1.07057,-0.208367
1780099,-9.83635,1.11368,-0.258662
1781109,-9.8579,0.941243,-0.172441
1782113,-9.8579,1.0562,-0.237107
1783122,-9.87946,1.01309,-0.179626
1784126,-9.88664,0.977168,-0.244292
1785135,-9.8076,1.11368,-0.229922
1786143,-9.87946,1.15679,-0.258662
1787147,-9.86509,1.03465,-0.251477
1788157,-9.86509,1.14242,-0.215552
1789173,-9.82916,1.07776,-0.229922
1790185,-9.88664,1.04183,-0.337698
1791190,-9.92257,1.07776,-0.337698
1792195,-9.84353,0.905317,-0.222737
1793207,-9.8579,1.02746,-0.215552
1794212,-9.87227,1.03465,-0.280217
1795219,-9.87227,0.941243,-0.208367
1796232,-9.82916,1.14242,-0.158071
1797232,-9.87227,1.17116,-0.201182
1798240,-9.87946,1.03465,-0.280217
1799248,-9.82916,1.09931,-0.193997
1800260,-9.88664,0.984353,-0.150886
1801266,-9.8579,0.991538,-0.179626
1802306,0.229922,11.5033,-190.347
1803310,-9.85072,1.09213,-0.201182
1804313,-9.87227,1.09931,-0.244292
1805317,-9.87227,1.02746,-0.143701
1806319,-9.87227,1.04902,-0.222737
1807323,-9.90101,1.02028,-0.201182
1808329,-9.85072,1.07057,-0.237107
1809333,-9.81479,1.08494,-0.208367
1810335,-9.82916,1.0562,-0.201182
1811339,-9.8076,1.01309,-0.208367
1812347,-9.80042,1.07776,-0.222737
1813362,-9.83635,1.03465,-0.186812
1814364,-9.80042,1.04183,-0.150886
1815376,-9.82916,1.06339,-0.165256
1816380,-9.89383,1.07057,-0.229922
1817390,-9.83635,1.04902,-0.179626
1818394,-9.83635,1.08494,-0.201182
1819398,-9.8579,1.12087,-0.237107
1820403,-9.85072,1.03465,-0.179626
1821405,-9.8076,1.04183,-0.222737
1822410,-9.79323,1.02028,-0.251477
1823410,-9.9082,1.02746,-0.165256
1824416,-9.79323,1.04183,-0.244292
1825420,-9.87946,1.04902,-0.107776
1826424,-9.87227,1.03465,-0.229922
1827433,-9.73575,1.0562,-0.294587
1828436,-9.8076,1.07776,-0.222737
1829436,-9.8579,1.00591,-0.237107
1830436,-9.83635,1.02028,-0.215552
1831436,-9.84353,1.07776,-0.244292
1832446,-9.8076,1.07057,-0.150886
1833450,-9.84353,1.04902,-0.201182
1834454,-9.90101,1.02028,-0.208367
1835461,-9.88664,1.0562,-0.143701
1836465,-9.85072,1.02028,-0.222737
1837477,-9.8579,0.977168,-0.280217
1838491,-9.90101,1.08494,-0.215552
1839493,-9.8579,1.0562,-0.244292
1840497,-9.81479,1.06339,-0.136516
1841500,-9.82916,1.04183,-0.165256
1842504,-9.86509,1.07057,-0.143701
1843509,-9.82916,1.03465,-0.287402
1844514,-9.87227,1.04902,-0.193997
1845519,-9.79323,1.02746,-0.251477
1846522,-9.79323,0.991538,-0.229922
1847524,-9.76449,1.07776,-0.237107
1848528,-9.85072,1.09213,-0.193997
1849532,-9.86509,1.04183,-0.237107
1850535,-9.8579,1.12087,-0.229922
1851547,-9.87227,1.07776,-0.172441
1852555,-9.82916,1.03465,-0.208367
1853559,-9.8076,1.07776,-0.208367
1854565,-9.78605,1.00591,-0.215552
1855569,-9.8076,0.991538,-0.172441
1856583,-9.77886,1.06339,-0.215552
1857588,-9.87227,1.03465,-0.222737
1858594,-9.79323,1.14242,-0.273032
1859598,-9.82916,1.02746,-0.136516
1860602,-9.82197,1.04183,-0.186812
1861607,-9.80042,1.12087,-0.158071
1862624,-9.8579,1.06339,-0.208367
1863642,-9.83635,1.11368,-0.215552
1864659,-9.83635,1.07057,-0.208367
1865671,-9.8076,0.998723,-0.258662
1866672,-9.80042,1.02746,-0.186812
1867678,-9.88664,1.0562,-0.201182
1868684,-9.83635,1.00591,-0.251477
1869687,-9.91538,1.01309,-0.158071
1870689,-9.83635,0.991538,-0.237107
1871691,-9.83635,1.07776,-0.208367
1872700,-9.82916,1.09931,-0.201182
1873724,0.229922,11.5033,-190.347
1874724,-9.89383,1.02746,-0.330513
1875730,-9.83635,1.11368,-0.316143
1876733,-9.91538,0.890947,0.00718506
1877741,-9.83635,0.991538,-0.208367
1878745,-9.76449,1.12087,-0.172441
1879751,-9.83635,0.998723,-0.186812
1880755,-9.84353,1.04902,-0.531694
1881759,-9.82916,1.12805,0
1882768,-9.8076,1.20709,-0.172441
1883783,-9.87946,1.0562,-0.186812
1884790,-9.77168,1.00591,-0.136516
1885792,-9.80042,1.02746,-0.258662
1886799,-9.88664,0.984353,-0.208367
1887805,-9.77168,0.991538,-0.294587
1888809,-9.80042,1.02028,-0.222737
1889813,-9.82197,1.02746,-0.273032
1890819,-9.84353,1.08494,-0.179626
1891823,-9.8076,1.09213,-0.251477
1892828,-9.87227,1.12805,-0.193997
1893831,-9.77168,1.03465,-0.222737
1894832,-9.82197,1.02028,-0.0215552
1895836,-9.88664,0.977168,-0.0646655
1896840,-9.82916,1.07057,-0.208367
1897848,-9.85072,1.03465,-0.114961
1898853,-9.9082,1.04902,-0.445474
1899870,-9.87227,0.998723,-0.100591
1900883,-9.79323,1.12087,-0.244292
1901891,-9.81479,1.09931,-0.337698
1902894,-9.85072,1.04183,-0.129331
1903907,-9.84353,1.17116,-0.251477
1904910,-9.82197,1.1065,-0.222737
1905914,-9.81479,1.04183,-0.208367
1906918,-9.84353,0.955613,-0.201182
1907926,-9.92257,0.934058,-0.222737
1908930,-9.87946,1.02746,-0.222737
1909932,-9.83635,1.07057,-0.265847
1910935,-9.86509,1.0562,-0.215552
1911939,-9.77886,1.12087,-0.280217
1912949,-9.8076,1.13524,-0.251477
1913961,-9.88664,1.0562,-0.172441
1914973,-9.82916,1.04902,-0.201182
1915977,-9.84353,1.04902,-0.244292
1916982,-9.89383,0.991538,-0.179626
1917986,-9.85072,1.04902,-0.280217
1918990,-9.82916,1.00591,-0.186812
1919994,-9.77886,0.969983,-0.222737
1921000,-9.8579,1.04902,-0.179626
1922003,-9.75731,1.14961,-0.208367
1923011,-9.87227,0.984353,-0.215552
1924017,-9.85072,1.14961,-0.193997
1925029,-9.83635,1.17835,-0.229922
1926033,-9.87227,0.926873,-0.186812
1927034,-9.86509,1.07776,-0.186812
1928039,-9.82197,0.984353,-0.280217
1929043,-9.83635,0.934058,-0.273032
1930045,-9.87946,1.02028,-0.215552
1931048,-9.87227,1.16398,-0.265847
1932054,-9.87227,0.912502,-0.201182
1933067,-9.88664,1.12805,-0.193997
1934084,-9.8579,1.08494,-0.215552
1935085,-9.8579,0.969983,-0.258662
1936110,-9.80042,1.07057,-0.193997
1937114,-9.83635,1.00591,-0.258662
1938122,-9.8579,1.08494,-0.280217
1939128,-9.88664,0.969983,-0.251477
1940132,-9.83635,1.04902,-0.229922
1941136,-9.84353,1.12805,-0.265847
1942140,-9.8076,1.15679,-0.208367
1943148,-9.83635,0.998723,-0.201182
1944148,-9.89383,1.07776,-0.258662
1945152,-9.88664,1.09213,-0.193997
1946157,-9.8579,0.991538,-0.301772
1947169,-9.82197,1.02746,-0.251477
1948177,-9.86509,1.07776,-0.215552
1949181,-9.80042,0.826282,-0.186812
1950187,-9.85072,1.09213,-0.172441
1951198,-9.87946,1.11368,-0.287402
1952202,-9.90101,0.941243,-0.251477
1953208,-9.85072,1.12087,-0.237107
1954212,-9.85072,1.04902,-0.265847
1955216,-9.81479,0.948428,-0.172441
1956230,-9.83635,1.01309,-0.201182
1957255,-9.8579,0.905317,-0.208367
1958263,-9.82916,1.11368,-0.129331
1959267,-9.83635,1.1065,-0.0646655
1960273,-9.82916,1.0562,-0.201182
1961277,-9.8579,1.09931,-0.179626
1962281,-9.8579,0.998723,-0.165256
1963283,-9.84353,0.991538,-0.244292
1964289,-9.87946,1.03465,-0.150886
1965292,-9.89383,1.04183,-0.172441
1966292,-9.84353,0.912502,-0.201182
1967295,-9.87227,1.02028,-0.186812
1968305,-9.81479,1.23583,-0.229922
1969309,-9.82197,0.962798,-0.229922
1970316,-9.8579,1.13524,-0.193997
1971319,-9.86509,1.04183,-0.129331
1972321,-9.90101,0.919688,-0.158071
1973329,-9.87946,1.07776,-0.251477
1974333,-9.8579,1.07776,-0.222737
1975339,-9.81479,1.00591,-0.222737
1976342,-9.77168,1.12087,-0.158071
1977354,-9.91538,1.07057,-0.179626
1978362,-9.82197,1.07057,-0.158071
1979367,-9.84353,0.969983,-0.244292
1980380,-9.89383,1.09213,-0.237107
1981384,-9.8076,1.07057,-0.0718506
1982389,-9.9082,1.11368,-0.366438
1983397,-9.84353,1.07057,-0.208367
1984398,-9.83635,1.01309,-0.193997
1985404,-9.89383,1.04183,-0.229922
1986410,-9.87227,1.07776,-0.237107
1987413,-9.77886,1.09931,-0.215552
1988417,-9.87946,1.08494,-0.237107
1989420,-9.86509,1.02746,-0.251477
1990426,-9.86509,0.991538,-0.251477
1991430,-9.86509,1.09931,-0.215552
1992432,-9.82916,1.00591,-0.237107
1993440,-9.81479,1.09931,-0.244292
1994446,-9.83635,1.14242,-0.280217
1995449,-9.82916,1.07057,-0.237107
1996453,-9.85072,1.08494,-0.165256
1997455,-9.81479,1.14961,-0.186812
1998460,-9.84353,1.07776,-0.258662
1999461,-9.90101,0.998723,-0.179626
2000464,-9.87227,0.991538,-0.165256
2001470,-9.83635,0.955613,-0.0862207
2002474,-9.87946,0.962798,-0.265847
2003482,-9.92257,1.06339,-0.237107
2004486,-9.83635,0.919688,-0.0646655
2005488,-9.84353,1.04183,-0.172441
2006499,-9.82916,1.0562,-0.186812
2007503,-9.88664,1.02746,-0.0790356
2008506,-9.9082,1.03465,-0.251477
2009511,-9.83635,1.19272,-0.129331
2010515,-9.87227,0.962798,-0.172441
2011519,-9.8579,1.07776,-0.387993
2012521,-9.8579,1.06339,-0.114961
2013527,-9.85072,0.991538,-0.258662
2014531,-9.82197,1.03465,-0.258662
2015535,-9.83635,1.04902,-0.0862207
2016541,-9.8076,0.998723,-0.323328
2017550,-9.83635,1.02746,-0.100591
2018557,-9.88664,1.11368,-0.0502954
2019561,-9.87946,1.08494,-0.316143
2020566,-9.93694,1.03465,-0.129331
2021566,-9.87227,1.13524,-0.229922
2022570,-9.83635,1.09931,-0.215552
2023580,-9.84353,0.991538,-0.323328
2024584,-9.79323,1.11368,-0.201182
2025588,-9.85072,1.00591,-0.222737
2026592,-9.78605,1.06339,-0.222737
2027595,-9.81479,1.11368,-0.273032
2028599,-9.83635,0.969983,-0.323328
2029611,-9.88664,1.09213,-0.316143
2030615,-9.84353,1.06339,-0.179626
2031618,-9.88664,1.00591,-0.258662
2032639,0.229922,11.5033,-190.347
2033643,-9.8076,1.03465,-0.186812
2034649,-9.84353,0.984353,-0.172441
2035653,-9.8579,1.09213,-0.165256
2036661,-9.79323,1.07057,-0.0790356
2037663,-9.82916,1.08494,-0.179626
2038669,-9.92257,1.04902,-0.143701
2039681,-9.84353,1.00591,-0.136516
2040683,-9.84353,1.07776,-0.287402
2041686,-9.86509,1.07057,-0.244292
2042693,-9.82197,1.02746,-0.287402
2043695,-9.83635,1.14961,-0.165256
2044699,-9.84353,1.02746,-0.237107
2045707,-9.87227,1.02028,-0.229922
2046718,-9.8076,1.09931,-0.143701
2047726,-9.87227,0.984353,-0.222737
2048730,-9.82916,1.07057,-0.165256
2049733,-9.77168,1.14242,-0.0502954
2050733,-9.8076,1.09931,-0.237107
2051737,-9.8076,1.02746,-0.215552
2052743,-9.8579,1.15679,-0.179626
2053749,-9.83635,0.998723,-0.301772
2054758,-9.8076,0.991538,-0.165256
2055772,-9.9082,0.941243,-0.186812
2056774,-9.86509,0.969983,-0.208367
2057780,-9.81479,1.09213,-0.179626
2058784,-9.8579,1.02028,-0.150886
2059797,-9.80042,1.07057,-0.265847
2060800,-9.87946,0.984353,-0.208367
2061804,-9.87227,0.926873,-0.258662
2062809,-9.87227,1.07057,-0.316143
2063811,-9.89383,0.955613,-0.143701
2064813,-9.79323,1.09213,-0.387993
2065817,-9.86509,0.991538,-0.172441
2066820,-9.81479,0.984353,-0.301772
2067830,-9.8579,1.0562,-0.265847
2068834,-9.8076,1.12087,-0.129331
2069846,-9.81479,1.04902,-0.380808
2070849,-9.82197,1.07057,-0.172441
2071855,-9.80042,1.14961,-0.193997
2072863,-9.78605,1.02746,-0.316143
2073867,-9.83635,1.06339,-0.0790356
2074871,-9.8579,1.00591,-0.301772
2075877,-9.8579,1.04902,-0.294587
2076881,-9.81479,1.04902,-0.193997
2077888,-9.77886,1.09931,-0.301772
2078894,-9.85072,0.991538,-0.222737
2079898,-9.90101,1.07776,-0.150886
2080910,-9.86509,1.02028,-0.229922
2081914,-9.80042,1.0562,-0.208367
2082919,-9.82197,0.984353,-0.158071
2083922,-9.87946,0.998723,-0.229922
2084926,-9.86509,1.09931,-0.158071
2085930,-9.90101,1.16398,-0.287402
2086936,-9.8076,1.04183,-0.179626
2087944,-9.80042,0.977168,-0.193997
2088948,-9.77886,1.09213,-0.208367
2089950,-9.85072,0.984353,-0.179626
2090957,-9.8579,1.06339,-0.244292
2091969,-9.78605,1.1065,-0.244292
2092977,-9.78605,1.08494,-0.222737
2093985,-9.80042,1.14961,-0.301772
2094989,-9.88664,0.934058,-0.201182
2095993,-9.89383,1.07057,-0.201182
2096996,-9.81479,1.1065,-0.237107
2098000,-9.87227,0.876577,-0.179626
2099003,-9.82916,1.04902,-0.222737
2100007,-9.88664,1.11368,-0.186812
2101012,-9.84353,0.991538,-0.215552
2102012,-9.83635,1.04183,-0.280217
2103020,-9.8076,1.19272,-0.165256
2104024,-9.79323,1.01309,-0.222737
2105029,-9.87946,0.991538,-0.129331
2106033,-9.78605,1.11368,-0.179626
2107033,-9.8579,0.883762,-0.330513
2108042,-9.82197,1.04902,-0.165256
2109054,-9.89383,1.00591,-0.165256
2110058,-9.87946,0.790356,-0.186812
2111070,-9.82916,1.03465,-0.158071
2112074,-9.81479,1.09931,-0.237107
2113082,-9.89383,0.998723,-0.287402
2114086,-9.82197,1.1065,-0.179626
2115090,-9.81479,1.14242,-0.251477
2116092,-9.91538,0.790356,-0.193997
2117096,-9.78605,1.27176,-0.150886
2118104,-9.77886,0.984353,-0.179626
2119108,-9.91538,0.833467,-0.179626
2120112,-9.83635,1.20709,-0.0790356
2121124,-9.89383,0.962798,-0.229922
2122136,-9.87946,0.869392,-0.222737
2123142,-9.79323,1.13524,-0.237107
2124145,-9.8076,1.01309,-0.215552
2125149,-9.84353,0.912502,-0.244292
2126151,-9.86509,1.15679,-0.186812
2127155,-9.83635,1.08494,-0.237107
2128163,-9.82916,1.08494,-0.201182
2129166,-9.79323,1.1999,-0.222737
2130168,-9.80042,1.02746,-0.280217
2131170,-9.87227,0.962798,-0.280217
2132182,-9.79323,0.898132,-0.294587
2133188,-9.80042,1.09931,-0.201182
2134194,-9.85072,0.969983,-0.229922
2135196,-9.84353,1.09213,-0.201182
2136200,-9.80042,1.16398,-0.244292
2137203,-9.82916,1.00591,-0.323328
2138211,-9.80042,1.09931,-0.179626
2139220,-9.81479,1.07057,-0.265847
2140231,-9.87227,1.02746,-0.244292
2141235,-9.85072,1.0562,-0.158071
2142240,-9.79323,1.00591,-0.301772
2143244,-9.82197,1.02028,-0.222737
2144248,-9.81479,1.12087,-0.179626
2145252,-9.8579,1.02746,-0.287402
2146256,-9.84353,1.07057,-0.136516
2147260,-9.87227,1.07776,-0.215552
2148266,-9.81479,1.08494,-0.251477
2149268,-9.83635,1.12087,-0.193997
2150271,-9.84353,1.14961,-0.186812
2151275,-9.90101,0.919688,-0.158071
2152291,-9.83635,1.17116,-0.237107
2153297,-9.84353,0.998723,-0.222737
2154298,-9.89383,0.862207,-0.179626
2155304,-9.88664,1.12805,-0.222737
2156309,-9.89383,1.07776,-0.179626
2157315,-9.85072,0.862207,-0.158071
2158323,-9.85072,1.19272,-0.215552
2159327,-9.83635,1.08494,-0.136516
2160333,-9.77886,0.926873,-0.179626
2161336,-9.75012,1.17835,-0.208367
2162348,-9.87946,0.934058,-0.222737
2163356,-9.86509,0.876577,-0.165256
2164362,-9.84353,1.08494,-0.258662
2165366,-9.8076,1.00591,-0.193997
2166370,-9.82916,0.998723,-0.186812
2167372,-9.78605,1.13524,-0.287402
2168382,-9.85072,1.07057,-0.215552
2169382,-9.82916,1.09931,-0.179626
2170386,-9.83635,1.04902,-0.244292
2171392,-9.86509,1.09931,-0.114961
2172405,-9.8579,0.912502,-0.251477
2173408,-9.87227,0.991538,-0.172441
2174412,-9.78605,0.977168,-0.193997
2175418,-9.82197,0.977168,-0.301772
2176427,-9.77168,1.13524,-0.273032
2177429,-9.85072,1.03465,-0.208367
2178437,-9.87227,1.06339,-0.359253
2179443,-9.8579,1.1065,-0.280217
2180446,-9.83635,1.02746,-0.215552
2181450,-9.79323,1.03465,-0.308958
2182452,-9.81479,1.07776,-0.409548
2183464,-9.86509,0.926873,-0.294587
2184468,-9.89383,1.09213,-0.316143
2185472,-9.86509,1.02028,-0.258662
2186476,-9.87227,1.08494,-0.229922
2187480,-9.83635,1.11368,-0.237107
2188490,-9.90101,0.998723,-0.237107
2189492,-9.87227,1.11368,-0.352068
2190498,-9.89383,1.12087,-0.158071
2191498,-9.92257,0.934058,-0.244292
2192500,-9.87227,0.969983,-0.172441
2193506,-9.8579,1.02746,-0.301772
2194515,-9.87946,1.04183,-0.215552
2195517,-9.84353,0.934058,-0.158071
2196521,-9.82916,1.02028,-0.337698
2197523,-9.84353,0.962798,-0.237107
2198525,-9.87946,0.948428,-0.308958
2199528,-9.87946,1.01309,-0.222737
2200532,-9.85072,1.02746,-0.251477
2201536,-9.83635,0.955613,-0.294587
2202536,-9.81479,1.06339,-0.294587
2203543,-9.83635,1.24302,-0.237107
2204547,-9.84353,1.1065,-0.251477
2205550,-9.80042,1.03465,-0.251477
2206554,-9.82916,1.17116,-0.215552
2207554,-9.83635,1.03465,-0.287402
2208564,-9.94412,1.06339,-0.244292
2209569,-9.8579,1.12087,-0.114961
2210572,-9.85072,1.0562,-0.172441
2211575,-9.86509,0.984353,-0.208367
2212586,-9.81479,1.07776,-0.244292
2213589,-9.88664,1.06339,-0.215552
2214593,-9.87227,1.04902,-0.258662
2215594,-9.80042,1.03465,-0.251477
2216598,-9.82916,1.06339,-0.229922
2217602,-9.82197,0.962798,-0.215552
2218609,-9.8076,1.07776,-0.114961
2219615,-9.8076,1.04183,-0.201182
2220619,-9.84353,1.0562,-0.237107
2221623,-9.8579,1.09213,-0.172441
2222627,-9.82916,1.09213,-0.193997
2223632,-9.86509,0.984353,-0.143701
2224645,-9.85072,1.08494,-0.208367
2225654,-9.80042,1.04902,-0.193997
2226660,-9.87227,0.941243,-0.193997
2227663,-9.89383,1.1065,-0.215552
2228671,-9.86509,0.962798,-0.229922
2229674,-9.82197,1.07057,-0.280217
2230680,-9.81479,1.1065,-0.179626
2231684,-9.8579,0.998723,-0.222737
2232684,-9.87946,0.998723,-0.258662
2233688,-9.82916,1.08494,-0.179626
2234693,-9.87946,0.998723,-0.265847
2235697,-9.84353,1.11368,-0.237107
2236703,-9.89383,0.898132,-0.215552
2237709,-9.84353,1.12087,-0.294587
2238717,-9.83635,1.02028,-0.143701
2239728,-9.85072,1.02028,-0.193997
2240729,-9.88664,1.07776,-0.251477
2241735,-9.83635,1.00591,-0.215552
2242740,-9.80042,1.02746,-0.258662
2243750,-9.86509,1.11368,-0.172441
2244753,-9.87946,0.955613,-0.193997
2245758,-9.85072,1.11368,-0.208367
2246761,-9.81479,1.06339,-0.165256
2247765,-9.8579,0.890947,-0.222737
2248769,-9.81479,1.00591,-0.251477
2249775,-9.8579,1.00591,-0.193997
2250779,-9.90101,1.02746,-0.237107
2251783,-9.77886,1.12087,-0.258662
2252789,-9.87946,1.12805,-0.186812
2253796,-9.87227,1.07057,-0.265847
2254808,-9.86509,1.04183,-0.237107
2255825,-9.86509,1.07776,-0.165256
2256831,-9.90101,1.04183,-0.273032
2257831,-9.84353,1.07776,-0.237107
2258839,-9.82197,1.08494,-0.193997
2259844,-9.86509,1.02746,-0.244292
2260851,-9.81479,1.07057,-0.179626
2261851,-9.86509,1.02028,-0.215552
2262854,-9.83635,1.07776,-0.229922
2263863,-9.84353,1.03465,-0.237107
2264867,-9.87946,1.02028,-0.229922
2265875,-9.80042,1.02028,-0.215552
2266879,-9.81479,1.07776,-0.201182
2267898,0.229922,11.5033,-190.347
2268902,-9.85072,1.11368,-0.294587
2269904,-9.82916,1.02746,-0.265847
2270908,-9.85072,1.09213,-0.244292
2271914,-9.82197,1.0562,-0.237107
2272921,-9.8579,1.04902,-0.258662
2273921,-9.81479,1.07776,-0.222737
2274927,-9.88664,0.998723,-0.186812
2275928,-9.88664,0.977168,-0.237107
2276928,-9.89383,1.07057,-0.251477
2277937,-9.86509,0.991538,-0.201182
2278943,-9.79323,1.02746,-0.215552
2279953,-9.87227,1.11368,-0.201182
2280957,-9.86509,1.02746,-0.150886
2281957,-9.82197,1.07057,-0.229922
2282963,-9.86509,1.09213,-0.237107
2283967,-9.82197,1.02028,-0.237107
2284969,-9.77886,1.07057,-0.258662
2285970,-9.77886,1.07057,-0.215552
2286973,-9.85072,1.02028,-0.215552
2287979,-9.82916,1.07057,-0.222737
2288983,-9.85072,1.09213,-0.201182
2289988,-9.85072,1.04902,-0.229922
2291003,-9.81479,1.11368,-0.186812
2292019,-9.85072,1.04183,-0.201182
2293023,-9.84353,1.03465,-0.193997
2294027,-9.84353,1.07776,-0.186812
2295031,-9.82916,1.00591,-0.215552
2296042,-9.85072,0.998723,-0.265847
2297059,-9.91538,1.04183,-0.186812
2298060,-9.84353,1.08494,-0.251477
2299064,-9.8579,1.04902,-0.280217
2300066,-9.84353,1.19272,-0.244292
2301069,-9.89383,0.977168,-0.222737
2302073,-9.8076,1.03465,-0.186812
2303078,-9.8076,1.12805,-0.114961
2304082,-9.82197,0.955613,-0.229922
2305088,-9.86509,0.998723,-0.158071
2306088,-9.87227,1.01309,-0.100591
2307091,-9.81479,1.01309,-0.229922
2308098,-9.87227,1.04183,-0.208367
2309101,-9.80042,1.11368,-0.215552
2310110,-9.80042,1.00591,-0.251477
2311116,-9.82197,1.06339,-0.208367
2312122,-9.8579,1.09931,-0.179626
2313130,-9.89383,0.941243,-0.193997
2314131,-9.80042,1.04183,-0.265847
2315136,-9.82197,1.04902,-0.251477
2316147,-9.82916,0.955613,-0.258662
2317158,-9.79323,1.1065,-0.265847
2318163,-9.84353,1.04902,-0.251477
2319168,-9.87946,1.04183,-0.237107
2320170,-9.83635,1.14242,-0.193997
2321174,-9.85072,1.07057,-0.193997
2322177,-9.88664,1.11368,-0.143701
2323187,-9.87946,0.898132,-0.193997
2324199,-9.82916,1.01309,-0.251477
2325205,-9.8579,1.12087,-0.122146
2326208,-9.85072,0.962798,-0.244292
2327210,-9.85072,1.1065,-0.308958
2328214,-9.79323,1.07057,-0.193997
2329225,-9.77168,1.1065,-0.301772
2330231,-9.87946,1.09213,-0.287402
2331237,-9.91538,1.08494,-0.0359253
2332242,-9.8076,0.934058,-0.244292
2333250,-9.88664,1.04902,-0.244292
2334257,-9.8579,1.02028,-0.158071
2335258,-9.82916,1.00591,-0.287402
2336262,-9.81479,1.13524,-0.229922
2337266,-9.86509,1.09931,-0.136516
2338273,-9.87946,1.02746,-0.222737
2339284,-9.87227,1.14961,-0.165256
2340289,-9.77886,1.09931,-0.201182
2341294,-9.86509,0.962798,-0.273032
2342298,-9.80042,1.12087,-0.172441
2343306,-9.82916,0.991538,-0.229922
2344321,-9.89383,1.01309,-0.237107
2345323,-9.86509,1.12087,-0.193997
2346327,-9.90101,0.984353,-0.237107
2347335,-9.87946,0.962798,-0.229922
2348338,-9.81479,1.16398,-0.193997
2349343,-9.76449,1.04902,-0.237107
2350345,-9.8579,1.02746,-0.273032
2351349,-9.8579,1.1065,-0.172441
2352350,-9.87227,1.03465,-0.193997
2353354,-9.87946,1.04902,-0.237107
2354358,-9.84353,1.09931,-0.229922
2355362,-9.9082,0.955613,-0.258662
2356366,-9.86509,0.998723,-0.229922
2357369,-9.85072,1.09931,-0.301772
2358372,-9.8076,0.919688,-0.301772
2359374,-9.75731,1.04902,-0.258662
2360380,-9.83635,1.14242,-0.251477
2361380,-9.87946,1.01309,-0.179626
2362382,-9.86509,1.07776,-0.222737
2363392,-9.83635,1.1065,-0.215552
2364396,-9.85072,1.0562,-0.172441
2365403,-9.88664,1.02746,-0.208367
2366407,-9.77886,1.04183,-0.193997
2367410,-9.88664,1.02746,-0.287402
2368413,-9.87946,1.09213,-0.129331
2369413,-9.88664,1.1065,-0.273032
2370417,-9.82197,1.08494,-0.201182
2371422,-9.88664,1.09213,-0.265847
2372426,-9.81479,1.01309,-0.172441
2373432,-9.82197,1.0562,-0.222737
2374436,-9.87946,1.01309,-0.229922
2375442,-9.82916,1.07057,-0.172441
2376444,-9.79323,1.14242,-0.201182
2377448,-9.8076,1.09213,-0.265847
2378455,-9.88664,1.08494,-0.287402
2379466,-9.87227,0.991538,-0.251477
2380470,-9.88664,1.01309,-0.215552
2381473,-9.90101,1.07776,-0.193997
2382477,-9.8076,1.07057,-0.287402
2383477,-9.85072,1.04902,-0.229922
2384481,-9.89383,1.04902,-0.265847
2385481,-9.80042,1.09931,-0.251477
2386485,-9.86509,1.02746,-0.251477
2387489,-9.82916,1.1065,-0.179626
2388491,-9.90101,1.01309,-0.215552
2389496,0.229922,11.5033,-190.347
2390500,-10.0375,1.37235,-0.984353
2391502,-9.86509,1.03465,-0.172441
2392506,-9.88664,1.04183,-0.244292
2393512,-9.86509,1.04183,-0.165256
2394514,-9.86509,0.991538,-0.237107
2395517,-9.82197,1.06339,-0.273032
2396521,-9.8076,0.991538,-0.208367
2397527,-9.9082,0.998723,-0.201182
2398535,-9.85072,1.04902,-0.287402
2399547,-9.82916,0.948428,-0.193997
2400553,-9.75731,1.04183,-0.402363
2401563,-9.8076,1.17116,-0.107776
2402563,-9.83635,1.02028,-0.193997
2403568,-9.8579,1.04902,-0.280217
2404574,-9.8579,1.09931,-0.0574805
2405578,-9.79323,1.0562,-0.215552
2406581,-9.8579,1.03465,-0.100591
2407585,-9.8579,1.02028,-0.143701
2408595,-9.82916,1.0562,-0.402363
2409605,-9.8579,0.984353,-0.215552
2410609,-9.81479,1.06339,-0.373623
2411614,-9.79323,1.07776,-0.344883
2412614,-9.86509,1.20709,-0.352068
2413622,-9.85072,0.977168,-0.352068
2414626,-9.87227,1.02028,-0.387993
2415632,-9.81479,1.13524,-0.215552
2416636,-9.87227,0.984353,-0.244292
2417640,-9.93694,1.02746,-0.308958
2418644,-9.87227,1.06339,-0.186812
2419656,-9.87946,0.969983,-0.244292
2420668,-9.91538,1.09213,-0.337698
2421672,-9.82197,1.02028,-0.172441
2422678,-9.78605,1.08494,-0.273032
2423684,-9.89383,1.0562,-0.244292
2424688,-9.91538,1.00591,-0.0215552
2425692,-9.82916,1.02746,-0.0934058
2426698,-9.82916,1.04902,-0.136516
2427702,-9.79323,1.02028,-0.150886
2428706,-9.90101,1.06339,0.0215552
2429710,-9.8579,1.02028,-0.0718506
2430713,-9.80042,1.07057,-0.316143
2431713,-9.82197,1.09213,-0.301772
2432717,-9.81479,1.03465,-0.301772
2433719,-9.82916,0.962798,-0.445474
2434725,-9.90101,1.07776,-0.229922
2435729,-9.8076,1.11368,-0.387993
2436745,-9.87946,1.07776,-0.445474
2437745,-9.79323,1.12805,-0.251477
2438753,-9.85072,1.09213,-0.237107
2439753,-9.90101,1.01309,-0.143701
2440756,-9.84353,1.02746,-0.201182
2441759,-9.86509,1.0562,-0.215552
2442763,-9.88664,1.02028,-0.100591
2443770,-9.94412,1.00591,-0.114961
2444772,-9.87227,0.998723,-0.107776
2445774,-9.81479,1.09931,-0.165256
2446778,-9.83635,0.962798,-0.258662
2447780,-9.89383,1.06339,-0.215552
2448790,-9.76449,1.03465,-0.107776
2449794,-9.86509,0.998723,-0.280217
2450804,-9.79323,1.04183,-0.208367
2451811,-9.87946,1.02028,-0.0790356
2452816,-9.87946,1.08494,-0.193997
2453823,-9.87946,1.07776,-0.193997
2454823,-9.90101,1.03465,-0.301772
2455827,-9.82916,1.08494,-0.287402
2456833,-9.90101,1.07776,-0.129331
2457837,-9.80042,1.04183,-0.308958
2458845,-9.85072,1.07057,-0.129331
2459851,-9.8076,1.1065,-0.179626
2460863,-9.8076,0.998723,-0.265847
2461880,-9.82197,1.02746,-0.172441
2462881,-9.80042,1.07057,-0.359253
2463886,-9.87227,1.07057,-0.359253
2464890,-9.8579,0.926873,-0.0790356
2465893,-9.80042,0.926873,-0.0502954
2466897,-9.86509,0.977168,0.0574805
2467903,-9.84353,1.01309,-0.0646655
2468911,-9.83635,0.998723,-0.0790356
2469920,-9.77168,1.03465,-0.114961
2470924,-9.83635,1.07776,-0.122146
2471936,0.229922,11.5033,-190.347
2472936,-9.83635,1.06339,-0.215552
2473944,-9.81479,1.08494,-0.244292
2474948,-9.91538,1.04183,-0.352068
2475952,-9.85072,1.09213,-0.330513
2476956,-9.82916,1.07057,-0.208367
2477960,-9.82916,1.0562,-0.287402
2478967,-9.84353,1.04902,-0.287402
2479977,-9.82916,1.09213,-0.258662
2480979,-9.83635,1.04183,-0.280217
2481980,-9.85072,1.09931,-0.201182
2482984,-9.8076,1.09213,-0.251477
2483990,-9.82197,0.991538,-0.237107
2484994,-9.77886,1.09213,-0.208367
2486001,-9.88664,0.934058,-0.294587
2487003,-9.81479,1.02746,-0.237107
2488012,-9.82197,1.07776,-0.229922
2489016,-9.87946,1.02746,-0.330513
2490019,-9.83635,1.08494,-0.287402
2491023,-9.86509,1.14961,-0.316143
2492039,-9.9082,1.1065,-0.294587
2493041,-9.77168,1.07776,-0.215552
2494046,-9.83635,1.04902,-0.129331
2495050,-9.8579,1.02028,-0.150886
2496051,-9.83635,1.07776,-0.165256
2497052,-9.85072,1.04183,-0.172441
2498056,-9.81479,1.01309,-0.158071
2499063,-9.85072,1.12805,-0.229922
2500067,-9.88664,1.04183,-0.136516
2501069,-9.9082,1.08494,-0.373623
2502072,-9.92257,1.0562,-0.251477
2503076,-9.88664,1.01309,-0.380808
2504085,-9.85072,1.07776,-0.294587
2505089,-9.84353,1.0562,-0.352068
2506094,-9.82916,1.09931,-0.352068
2507106,-9.90101,1.09213,-0.330513
2508118,-9.87227,1.04902,-0.301772
2509122,-9.8076,1.11368,-0.294587
2510126,-9.8579,1.06339,-0.308958
2511130,-9.82916,1.04183,-0.330513
2512135,-9.82197,1.02028,-0.308958
2513177,0.229922,11.5033,-190.347
2514181,-9.84353,1.11368,-0.237107
2515182,-9.87946,1.12805,-0.237107
2516186,-9.8579,1.11368,-0.208367
2517190,-9.82916,1.14961,-0.308958
2518197,-9.87946,0.998723,-0.229922
2519203,-9.88664,1.0562,-0.344883
2520207,-9.83635,1.08494,-0.222737
2521213,-9.88664,0.998723,-0.215552
2522221,-9.88664,1.07057,-0.237107
2523223,-9.8579,1.04183,-0.193997
2524241,-9.83635,1.07776,-0.237107
2525243,-9.86509,1.1065,-0.208367
2526248,-9.89383,1.0562,-0.237107
2527252,-9.82916,1.0562,-0.280217
2528260,-9.81479,1.09931,-0.215552
2529264,-9.92257,1.01309,-0.244292
2530270,-9.8579,1.00591,-0.265847
2531274,-9.85072,0.955613,-0.201182
2532278,-9.81479,1.09931,-0.215552
2533281,-9.84353,1.12087,-0.330513
2534289,-9.90101,0.969983,-0.237107
2535297,-9.82916,1.07776,-0.150886
2536300,-9.8076,1.04902,-0.280217
2537312,-9.84353,1.04902,-0.301772
2538320,-9.8579,1.1065,-0.488584
2539324,-9.87227,1.07776,-0.459844
2540326,-9.85072,1.06339,-0.265847
2541332,-9.87946,1.09213,-0.323328
2542345,-9.88664,1.04183,-0.265847
2543351,-9.78605,1.04902,-0.143701
2544352,-9.89383,1.04183,-0.0143701
2545355,-9.82916,0.962798,-0.0215552
2546357,-9.89383,1.03465,0.129331
2547361,-9.8579,1.04902,-0.0574805
2548369,-9.91538,0.998723,-0.193997
2549373,-9.90101,1.04902,-0.129331
2550377,-9.87227,0.991538,-0.215552
2551389,-9.8579,1.06339,-0.229922
2552392,-9.82197,1.11368,-0.258662
2553396,-9.83635,1.09931,-0.186812
2554399,-9.82197,1.09213,-0.287402
2555410,-9.85072,1.1065,-0.158071
2556414,-9.8579,0.991538,-0.0431104
2557416,-9.82197,0.998723,-0.0574805
2558424,-9.86509,0.984353,-0.129331
2559439,-9.82197,1.14242,-0.337698
2560454,-9.82197,0.977168,-0.201182
2561454,-9.9082,1.02028,-0.158071
2562464,-9.78605,1.09213,-0.294587
2563467,-9.86509,0.991538,-0.143701
2564470,-9.77168,1.13524,-0.215552
2565492,-9.84353,1.03465,-0.287402
2566498,-9.84353,1.04183,-0.193997
2567502,-9.84353,1.1065,-0.251477
2568510,-9.92257,1.0562,-0.258662
2569514,-9.84353,1.07776,-0.179626
2570529,-9.86509,1.0562,-0.258662
2571529,-9.78605,1.06339,-0.201182
2572536,-9.87227,1.06339,-0.172441
2573537,-9.84353,1.0562,-0.244292
2574543,-9.86509,1.09213,-0.143701
2575553,-9.8579,1.07776,-0.179626
2576557,-9.82197,1.12087,-0.229922
2577563,-9.80042,1.00591,-0.0502954
2578567,-9.8076,1.06339,-0.287402
2579579,-9.8076,1.04183,-0.193997
2580587,-9.84353,1.12087,-0.308958
2581593,-9.82197,1.03465,-0.308958
2582596,-9.85072,1.09931,-0.201182
2583604,-9.83635,1.06339,-0.107776
2584608,-9.80042,1.06339,-0.172441
2585609,-9.86509,1.1065,-0.208367
2586626,-9.90101,1.08494,-0.208367
2587630,-9.78605,1.03465,-0.201182
2588636,-9.87227,0.984353,-0.186812
2589640,-9.91538,0.984353,-0.0215552
2590645,-9.87227,0.984353,-0.215552
2591655,-9.82916,1.0562,-0.186812
2592661,-9.9082,0.984353,-0.251477
2593666,-9.82916,1.1065,-0.316143
2594670,-9.81479,1.12087,-0.251477
2595673,-9.81479,1.08494,-0.344883
2596683,-9.87227,1.1065,-0.258662
2597687,-9.82197,1.07057,-0.359253
2598692,-9.89383,1.07776,-0.517324
2599698,-9.81479,1.11368,-0.251477
2600702,-9.84353,0.998723,-0.0215552
2601705,-9.82197,1.02746,-0.0790356
2602709,-9.85072,1.07776,-0.172441
2603719,-9.83635,1.08494,-0.186812
2604719,-9.87946,1.02028,-0.158071
2605719,-9.86509,0.998723,-0.323328
2606726,-9.87946,1.04183,-0.136516
2607727,-9.78605,1.07057,-0.122146
2608735,-9.83635,1.08494,-0.244292
2609745,-9.84353,0.919688,-0.287402
2610751,-9.8076,1.15679,-0.337698
2611755,-9.8579,1.14242,-0.287402
2612759,-9.75731,1.08494,-0.150886
2613764,-9.83635,0.991538,0.193997
2614770,-9.87946,1.08494,-0.251477
2615772,-9.87227,0.847837,-0.129331
2616775,-9.90101,1.00591,-0.287402
2617779,-9.82916,1.13524,-0.158071
2618788,-9.89383,0.898132,-0.308958
2619792,-9.84353,1.13524,-0.114961
2620796,-9.85072,1.17835,-0.143701
2621806,-9.87946,1.0562,-0.337698
2622810,-9.81479,0.948428,-0.193997
2623822,-9.82916,1.09931,-0.0862207
2624827,-9.82197,0.826282,-0.158071
2625834,-9.79323,1.17835,-0.129331
2626843,-9.87946,0.969983,-0.294587
2627855,-9.87946,1.04183,-0.114961
2628863,-9.83635,1.09931,-0.237107
2629869,-9.8076,1.01309,-0.366438
2630882,-9.8579,1.09213,-0.172441
2631882,-9.81479,1.11368,-0.373623
2632888,-9.87227,0.962798,-0.201182
2633900,-9.8076,1.02746,-0.265847
2634904,-9.87946,1.1999,-0.359253
2635908,-9.8579,0.883762,-0.287402
2636914,-9.86509,1.02028,-0.201182
2637915,-9.8076,1.13524,-0.273032
2638937,-9.85072,1.12087,-0.258662
2639943,-9.81479,1.00591,-0.215552
2640953,-9.83635,1.07776,-0.423918
2641961,-9.8579,0.969983,-0.186812
2642965,-9.87946,1.0562,-0.229922
2643972,-9.87227,0.955613,-0.251477
2644976,-9.9082,0.991538,-0.244292
2645980,-9.81479,1.07057,-0.251477
2646995,-9.84353,1.04902,-0.251477
2647997,-9.83635,1.11368,-0.273032
2649000,-9.8076,1.14242,-0.201182
2650008,-9.83635,1.2502,-0.215552
2651020,-9.82916,0.926873,-0.129331
2652024,-9.82916,1.13524,-0.308958
2653026,-9.83635,1.12087,-0.186812
2654034,-9.8076,0.984353,-0.193997
2655039,-9.83635,1.01309,-0.294587
2656054,-9.8076,1.08494,-0.193997
2657054,-9.83635,1.0562,-0.244292
2658054,-9.80042,1.09931,-0.330513
2659055,-9.86509,1.02028,-0.158071
2660073,-9.9082,1.11368,-0.0718506
2661077,-9.75731,1.09213,-0.215552
2662081,-9.82197,1.04902,-0.251477
2663085,-9.90101,0.6251,-0.215552
2664093,-9.82916,0.955613,-0.301772
2665104,-9.77168,1.02746,-0.395178
2666106,-9.86509,1.0562,-0.517324
2667111,-9.82197,1.08494,-0.488584
2668116,-9.81479,1.14242,-0.387993
2669121,-9.86509,1.07776,-0.222737
2670126,-9.81479,1.09931,-0.0359253
2671128,-9.84353,1.09213,-0.0862207
2672131,-9.8579,1.15679,-0.114961
2673137,-9.87946,0.977168,-0.172441
2674138,-9.86509,1.04183,-0.0287402
2675146,-9.89383,0.962798,-0.100591
2676152,-9.82197,0.941243,-0.0934058
2677163,-9.75731,1.08494,-0.186812
2678165,-9.79323,1.09213,-0.122146
2679173,-9.81479,0.962798,-0.280217
2680185,-9.81479,1.14961,-0.0790356
2681186,-9.82916,0.991538,-0.150886
2682186,-9.8579,0.948428,-0.201182
2683189,-9.82197,1.17835,-0.143701
2684203,-9.82916,0.890947,-0.150886
2685208,-9.91538,0.905317,-0.287402
2686213,-9.77168,1.22864,-0.193997
2687217,-9.83635,1.00591,-0.344883
2688223,-9.92257,0.732876,-0.280217
2689227,-9.83635,1.17116,-0.201182
2690230,-9.91538,0.998723,-0.244292
2691252,-9.8076,1.03465,-0.352068
2692261,-9.83635,1.22864,-0.201182
2693262,-9.84353,1.02028,-0.244292
2694262,-9.87227,0.977168,-0.352068
2695271,-9.87227,1.08494,-0.158071
2696275,-9.84353,0.969983,-0.222737
2697279,-9.85072,0.941243,-0.208367
2698281,-9.77886,1.14242,-0.143701
2699283,-9.82197,0.948428,-0.201182
2700285,-9.83635,1.09931,-0.114961
2701289,-9.81479,1.08494,-0.158071
2702301,-9.92257,1.0562,-0.251477
2703305,-9.87946,1.04902,-0.215552
2704317,-9.82197,1.12087,-0.158071
2705321,-9.8579,0.998723,-0.308958
2706327,-9.85072,1.02028,-0.273032
2707341,-9.8076,1.02028,-0.193997
2708354,-9.85072,1.00591,-0.344883
2709359,-9.81479,1.1065,-0.251477
2710362,-9.86509,1.01309,-0.258662
2711370,-9.90101,0.977168,-0.359253
2712375,-9.86509,1.07776,-0.172441
2713418,0.229922,11.5033,-190.347
2714422,-9.73575,1.17116,-0.237107
2715426,-9.8076,1.08494,-0.136516
2716430,-9.87946,0.905317,-0.387993
2717436,-9.85072,1.12087,-0.215552
2718436,-9.81479,0.998723,-0.244292
2719444,-9.82197,0.998723,-0.301772
2720448,-9.82197,1.16398,-0.100591
2721460,-9.82197,0.969983,-0.208367
2722463,-9.87946,1.06339,-0.287402
2723471,-9.85072,1.12087,-0.143701
2724477,-9.88664,0.905317,-0.258662
2725477,-9.87946,1.1065,-0.0718506
2726477,-9.84353,1.12087,-0.165256
2727481,-9.87946,0.905317,-0.431104
2728482,-9.83635,1.02746,-0.208367
2729486,-9.87227,1.0562,-0.215552
2730490,-9.93694,0.948428,-0.172441
2731500,-9.8579,0.948428,-0.107776
2732501,-9.77886,1.1065,-0.366438
2733505,-9.84353,0.998723,-0.0790356
2734505,-9.8579,1.0562,-0.0862207
2735505,-9.87946,1.13524,-0.215552
2736511,-9.81479,1.07776,-0.229922
2737519,-9.8076,1.07057,-0.251477
2738527,-9.82197,1.09213,-0.201182
2739533,-9.81479,1.11368,-0.387993
2740537,-9.84353,1.02746,-0.244292
2741550,-9.87946,1.09213,-0.359253
2742566,-9.87946,1.17116,-0.244292
2743567,-9.78605,1.06339,-0.294587
2744571,-9.83635,1.09213,-0.387993
2745582,-9.89383,1.14242,-0.330513
2746592,-9.8076,1.04902,-0.380808
2747595,-9.8579,0.984353,-0.431104
2748600,-9.89383,0.948428,-0.280217
2749601,-9.85072,1.00591,-0.244292
2750603,-9.83635,1.00591,-0.201182
2751614,-9.84353,1.09213,-0.265847
2752618,-9.80042,1.13524,-0.273032
2753621,-9.90101,0.962798,-0.229922
2754627,-9.8579,1.09213,-0.0790356
2755635,-9.8579,1.03465,-0.0431104
2756638,-9.77886,1.14242,-0.165256
2757644,-9.86509,1.01309,-0.179626
2758654,-9.84353,1.01309,-0.201182
2759667,-9.83635,1.07057,-0.179626
2760667,-9.77886,1.15679,-0.215552
2761673,-9.89383,0.969983,-0.201182
2762674,-9.8579,0.919688,-0.122146
2763684,-9.85072,1.07776,-0.129331
2764692,-9.83635,1.03465,-0.251477
2765698,-9.84353,1.0562,-0.158071
2766702,-9.82916,1.01309,-0.215552
2767706,-9.83635,1.09213,-0.201182
2768706,-9.88664,1.09931,-0.186812
2769712,-9.86509,1.07776,-0.186812
2770716,-9.79323,1.04183,-0.222737
2771720,-9.80042,1.15679,-0.215552
2772720,-9.77886,1.12805,-0.265847
2773731,-9.81479,1.01309,-0.265847
2774735,-9.8076,1.14961,-0.201182
2775737,-9.88664,0.926873,-0.143701
2776752,-9.86509,1.13524,-0.193997
2777764,-9.89383,1.11368,-0.265847
2778771,-9.79323,1.04902,-0.258662
2779777,-9.87227,1.11368,-0.316143
2780788,-9.82197,1.0562,-0.222737
2781796,-9.88664,1.01309,-0.158071
2782799,-9.88664,1.06339,-0.208367
2783802,-9.87227,0.991538,-0.229922
2784806,-9.8579,1.03465,-0.193997
2785822,-9.87946,1.02746,-0.229922
2786835,-9.88664,1.04902,-0.215552
2787835,-9.82916,1.09931,-0.280217
2788846,-9.87227,1.02746,-0.258662
2789850,-9.82197,1.09931,-0.201182
2790854,-9.87946,1.07057,-0.265847
2791857,-9.86509,0.998723,-0.273032
2792861,-9.87227,1.04902,-0.193997
2793862,-9.85072,0.969983,-0.237107
2794886,-9.75731,1.16398,-0.237107
2795890,-9.8579,0.883762,-0.215552
2796894,-9.80042,1.22146,-0.215552
2797905,-9.80042,1.04183,-0.208367
2798906,-9.9082,0.926873,-0.237107
2799910,-9.79323,1.16398,-0.244292
2800914,-9.8579,1.00591,-0.244292
2801919,-9.87946,1.02028,-0.193997
2802923,-9.82197,1.03465,-0.165256
2803923,-9.85072,1.03465,-0.229922
2804935,-9.87946,1.08494,-0.237107
2805939,-9.82916,1.1065,-0.208367
2806949,-9.81479,1.03465,-0.222737
2807953,-9.82916,1.09213,-0.215552
2808961,-9.77886,1.09931,-0.215552
2809967,-9.87946,1.07776,-0.179626
2810967,-9.90101,0.955613,-0.273032
2811967,-9.84353,1.09931,-0.158071
2812973,-9.75731,1.17116,-0.280217
2813978,-9.83635,1.04902,-0.172441
2814982,-9.85072,1.13524,-0.201182
2815990,-9.85072,1.01309,-0.215552
2817002,-9.81479,1.02028,-0.193997
2818006,-9.84353,1.00591,-0.237107
2819014,-9.82916,1.07776,-0.237107
2820020,-9.84353,1.19272,-0.186812
2821026,-9.89383,0.826282,-0.301772
2822030,-9.82197,1.08494,-0.229922
2823035,-9.82197,1.13524,-0.244292
2824046,-9.85072,0.941243,-0.179626
2825048,-9.84353,1.1065,-0.208367
2826052,-9.84353,1.13524,-0.165256
2827055,-9.87946,0.934058,-0.208367
2828057,-9.89383,1.14242,-0.150886
2829061,-9.84353,1.07776,-0.193997
2830065,-9.8579,0.977168,-0.201182
2831070,-9.83635,1.04183,-0.258662
2832077,-9.87946,0.934058,-0.193997
2833086,-9.84353,1.01309,-0.237107
2834093,-9.8579,1.01309,-0.237107
2835096,-9.84353,0.969983,-0.229922
2836097,-9.83635,1.03465,-0.244292
2837097,-9.79323,1.37235,-0.150886
2838099,-9.85072,1.07057,-0.251477
2839110,-9.87946,1.07776,-0.215552
2840114,-9.81479,1.02746,-0.323328
2841116,-9.89383,0.941243,-0.215552
2842125,-9.92257,1.00591,-0.258662
2843132,-9.80042,1.00591,-0.222737
2844143,-9.87946,1.01309,-0.215552
2845147,-9.78605,1.16398,-0.186812
2846161,-9.83635,1.14242,-0.186812
2847163,-9.91538,1.15679,-0.193997
2848164,-9.87227,1.11368,-0.150886
2849175,-9.85072,1.02746,-0.258662
2850180,-9.8076,1.11368,-0.208367
2851185,-9.83635,0.862207,-0.287402
2852189,-9.80042,1.04183,-0.186812
2853200,-9.87227,1.01309,-0.301772
2854206,-9.80042,1.08494,-0.273032
2855207,-9.82197,1.12805,-0.229922
2856208,-9.9082,0.941243,-0.301772
2857213,-9.84353,1.16398,-0.215552
2858222,-9.83635,1.04902,-0.251477
2859228,-9.90101,0.962798,-0.237107
2860232,-9.9082,1.07776,-0.158071
2861247,-9.87227,1.02028,-0.136516
2862249,-9.81479,1.07057,-0.229922
2863250,-9.83635,1.09931,-0.222737
2864259,-9.86509,0.962798,-0.0646655
2865263,-9.85072,1.04902,-0.287402
2866263,-9.84353,1.1065,-0.122146
2867272,-9.89383,1.00591,-0.208367
2868282,-9.82197,1.08494,-0.237107
2869286,-9.79323,1.04183,-0.0862207
2870286,-9.82916,1.08494,-0.244292
2871289,-9.84353,1.04183,-0.467029
2872295,-9.87227,1.06339,-0.373623
2873299,-9.86509,1.07776,-0.337698
2874308,-9.8579,0.991538,-0.395178
2875317,-9.84353,1.07776,-0.244292
2876320,-9.87946,1.06339,-0.330513
2877328,0.229922,11.5033,-190.347
2878328,-9.85072,1.07057,-0.165256
2879336,-9.83635,1.13524,-0.193997
2880342,-9.87946,1.08494,-0.150886
2881346,-9.83635,1.04183,-0.237107
2882351,-9.82197,1.07776,-0.129331
2883357,-9.86509,0.955613,-0.201182
2884357,-9.87946,1.08494,-0.143701
2885363,-9.8579,0.955613,-0.122146
2886363,-9.94412,1.12087,-0.0287402
2887364,-9.78605,1.14242,-0.308958
2888368,-9.82197,1.04183,-0.301772
2889376,-9.8579,1.09213,-0.237107
2890380,-9.81479,1.07057,-0.172441
2891390,-9.86509,0.984353,-0.229922
2892399,-9.8076,1.08494,-0.244292
2893400,-9.8579,1.0562,-0.366438
2894404,-9.88664,0.984353,-0.129331
2895410,-9.81479,1.06339,-0.0502954
2896410,-9.86509,1.0562,-0.158071
2897413,-9.77168,1.02746,-0.122146
2898419,-9.87227,1.0562,-0.179626
2899427,-9.81479,1.02028,-0.201182
2900432,-9.84353,1.04902,-0.251477
2901443,-9.8076,1.07057,-0.129331
2902459,-9.8579,0.977168,-0.201182
2903465,-9.8076,1.02746,-0.265847
2904471,-9.85072,1.0562,-0.258662
2905473,-9.81479,0.984353,-0.129331
2906478,-9.83635,1.11368,-0.222737
2907490,-9.88664,0.984353,-0.165256
2908494,-9.84353,1.01309,-0.215552
2909495,-9.86509,1.09213,-0.251477
2910508,-9.82197,1.01309,-0.287402
2911508,-9.8076,1.08494,-0.0862207
2912511,-9.81479,1.04902,-0.265847
2913517,-9.85072,1.02028,-0.258662
2914525,-9.78605,1.12805,-0.380808
2915529,-9.8579,1.03465,-0.208367
2916533,-9.8579,0.969983,-0.179626
2917535,-9.8579,1.04183,-0.229922
2918538,-9.87946,0.977168,-0.193997
2919541,-9.8076,1.02746,-0.201182
2920546,-9.81479,1.0562,-0.186812
2921551,-9.87227,1.04183,-0.172441
2922560,-9.86509,1.07057,-0.301772
2923564,-9.87227,1.04183,-0.186812
2924574,-9.77886,1.04183,-0.280217
2925578,-9.82197,1.0562,-0.251477
2926578,-9.84353,1.06339,-0.193997
2927582,-9.82197,1.02746,-0.122146
2928585,-9.88664,1.04183,-0.208367
2929589,-9.83635,1.02746,-0.0574805
2930593,-9.87227,1.02028,0.0718506
2931599,-9.85072,1.04183,-0.0359253
2932603,-9.86509,0.977168,-0.0502954
2933604,-9.75731,1.04902,-0.100591
2934612,-9.79323,1.09213,-0.229922
2935614,-9.84353,0.984353,-0.136516
2936618,-9.88664,1.0562,-0.201182
2937622,-9.83635,1.0562,-0.208367
2938638,-9.87946,1.02746,-0.193997
2939644,-9.86509,1.04902,-0.179626
2940653,-9.8579,1.0562,-0.186812
2941657,-9.87946,1.06339,-0.229922
2942662,-9.87227,1.08494,-0.244292
2943666,-9.86509,0.998723,-0.251477
2944670,-9.77886,1.12087,-0.258662
2945674,-9.92975,0.991538,-0.158071
2946680,-9.82197,1.04183,-0.258662
2947691,-9.9082,1.02028,-0.229922
2948696,-9.84353,1.04902,-0.215552
2949703,-9.8579,1.04902,-0.237107
2950709,-9.82916,1.11368,-0.136516
2951713,-9.8579,1.00591,-0.229922
2952726,-9.84353,1.14961,-0.158071
2953745,0.229922,11.5033,-190.347
2954749,-9.85072,0.969983,-0.158071
2955753,-9.79323,1.12087,-0.208367
2956757,-9.9082,0.969983,-0.193997
2957762,-9.88664,1.02028,-0.215552
2958765,-9.80042,1.14961,-0.251477
2959782,-9.75012,1.02746,-0.215552
2960786,-9.86509,1.04902,-0.193997
2961790,-9.82197,1.01309,-0.208367
2962792,-9.82197,1.06339,-0.186812
2963796,-9.85072,1.08494,-0.222737
2964802,-9.87227,1.11368,-0.237107
2965804,-9.83635,1.08494,-0.229922
2966808,-9.8579,1.07776,-0.237107
2967812,-9.87946,1.04183,-0.193997
2968816,-9.87946,1.02746,-0.251477
2969820,0.229922,11.5033,-190.347
2970830,-9.83635,1.0562,-0.330513
2971832,-9.81479,1.01309,-0.179626
2972834,-9.81479,1.09931,-0.244292
2973842,-9.87946,0.962798,-0.251477
2974846,-9.8579,1.01309,-0.265847
2975848,-9.9082,0.998723,-0.208367
2976854,-9.95131,0.912502,-0.229922
2977858,-9.79323,1.02028,-0.323328
2978866,-9.83635,1.07776,-0.251477
2979880,-9.82916,1.04183,-0.258662
2980883,-9.88664,1.13524,-0.193997
2981899,-9.82916,1.11368,-0.186812
2982900,-9.82197,1.02746,-0.237107
2983911,-9.77886,1.09213,-0.273032
2984915,-9.8579,1.00591,-0.172441
2985919,-9.87946,0.977168,-0.179626
2986925,-9.8076,1.06339,-0.193997
2987929,-9.88664,1.02746,-0.244292
2988934,-9.83635,1.1065,-0.222737
2989943,-9.86509,0.948428,-0.179626
2990945,-9.85072,1.07057,-0.265847
2991946,-9.89383,1.09931,-0.215552
2992949,-9.83635,1.04902,-0.229922
2993957,-9.82916,1.1065,-0.229922
2994962,-9.92257,1.0562,-0.150886
2995966,-9.81479,0.998723,-0.244292
2996970,-9.86509,1.02028,-0.208367
2997976,-9.9082,1.02746,-0.143701
2998980,-9.8076,0.977168,-0.316143
2999983,-9.79323,1.04902,-0.237107
3000995,-9.78605,1.06339,-0.122146
3002001,-9.89383,0.962798,-0.0790356
3003005,-9.82197,1.12805,-0.136516
3004012,-9.8579,1.09213,-0.158071
3005016,-9.9082,1.00591,-0.193997
3006022,-9.87946,1.0562,-0.229922
3007028,-9.85072,1.00591,-0.287402
3008032,-9.80042,1.03465,-0.287402
3009040,-9.78605,1.09213,-0.316143
3010040,-9.8579,1.15679,-0.251477
3011057,0.229922,11.5033,-190.347
3012060,-9.82197,1.12087,-0.273032
3013066,-9.81479,1.1999,-0.179626
3014074,-9.87946,1.02746,-0.258662
3015078,-9.82916,1.12087,-0.179626
3016091,-9.78605,1.12087,-0.201182
3017098,-9.8579,0.998723,-0.150886
3018099,-9.9082,1.09213,-0.172441
3019109,-9.8579,0.991538,-0.201182
3020125,-9.78605,1.03465,-0.316143
3021128,-9.90101,1.09213,-0.273032
3022132,-9.8579,1.07057,-0.114961
3023135,-9.84353,1.08494,-0.136516
3024146,-9.86509,1.12087,-0.402363
3025162,-9.77886,1.01309,-0.215552
3026168,-9.80042,1.00591,-0.280217
3027173,-9.88664,0.998723,-0.323328
3028178,-9.8579,1.07057,-0.301772
3029186,-9.78605,1.04902,-0.237107
3030189,-9.75012,1.11368,-0.546064
3031201,-9.89383,1.11368,-0.229922
3032214,-9.88664,1.03465,-0.193997
3033219,-9.8579,1.1065,-0.215552
3034222,-9.86509,0.912502,-0.201182
3035229,-9.8579,1.08494,-0.186812
3036234,-9.81479,1.11368,-0.114961
3037236,-9.82916,1.00591,-0.122146
3038243,-9.85072,1.07776,-0.258662
3039251,-9.8076,1.11368,-0.172441
3040253,-9.86509,1.0562,-0.265847
3041257,-9.84353,1.00591,-0.280217
3042257,0.229922,11.5033,-190.347
3043275,-9.79323,1.01309,-0.136516
3044277,-9.86509,1.03465,-0.237107
3045281,-9.83635,1.1065,-0.237107
3046289,-9.89383,1.02746,-0.287402
3047300,-9.82197,1.12805,-0.193997
3048304,-9.86509,1.08494,-0.179626
3049312,-9.82197,1.04183,-0.251477
3050314,-9.85072,1.1065,-0.179626
3051318,-9.85072,0.991538,-0.208367
3052321,-9.82916,1.02028,-0.193997
3053322,-9.79323,1.17116,-0.165256
3054330,-9.83635,1.0562,-0.186812
3055332,-9.87946,1.02746,-0.251477
3056344,-9.84353,1.04902,-0.301772
3057350,-9.8579,0.984353,-0.186812
3058354,-9.82916,1.06339,-0.165256
3059358,-9.83635,1.09931,-0.229922
3060362,-9.87946,0.955613,-0.193997
3061375,-9.77168,1.12087,-0.122146
3062391,-9.87946,1.03465,-0.208367
3063403,-9.81479,1.07776,-0.258662
3064411,-9.92975,1.08494,-0.129331
3065415,-9.80042,1.03465,-0.193997
3066419,-9.8579,0.998723,-0.0790356
3067422,-9.88664,1.02028,0.0143701
3068429,-9.87946,1.03465,-0.107776
3069433,-9.84353,1.09213,-0.0862207
3070435,-9.78605,1.1065,-0.179626
3071439,-9.79323,1.09213,-0.0718506
3072440,-9.8076,1.08494,-0.143701
3073442,-9.87946,1.04183,-0.0790356
3074443,-9.86509,1.08494,-0.208367
3075455,-9.85072,1.04183,-0.100591
3076459,-9.86509,1.07776,-0.158071
3077472,-9.88664,0.998723,-0.158071
3078476,-9.82916,1.02028,-0.193997
3079484,-9.84353,0.984353,-0.201182
3080488,-9.89383,1.02028,-0.129331
3081492,-9.87946,1.07057,-0.215552
3082507,-9.84353,1.12087,-0.179626
3083510,-9.86509,1.09931,-0.273032
3084518,-9.8579,1.02028,-0.193997
3085535,-9.83635,1.06339,-0.215552
3086537,-9.82197,1.11368,-0.208367
3087541,-9.8579,1.09931,-0.201182
3088545,-9.85072,0.869392,-0.179626
3089552,-9.77168,1.14961,-0.193997
3090558,-9.85072,1.04183,-0.114961
3091564,-9.9082,0.934058,-0.186812
3092565,-9.85072,1.13524,-0.208367
3093579,-9.83635,1.02028,-0.143701
3094580,-9.82916,1.07776,-0.251477
3095584,-9.81479,1.09931,-0.201182
3096587,-9.87227,0.969983,-0.172441
3097593,-9.85072,1.1065,-0.237107
3098597,-9.80042,1.08494,-0.237107
3099605,-9.86509,1.04183,-0.179626
3100609,-9.82197,1.09931,-0.258662
3101615,-9.78605,1.14961,-0.222737
3102632,-9.88664,0.926873,-0.136516
3103643,-9.79323,1.0562,-0.201182
3104645,-9.84353,1.04902,-0.122146
3105651,-9.78605,0.977168,-0.201182
3106655,-9.79323,1.12087,-0.179626
3107659,-9.83635,1.02746,-0.165256
3108665,-9.82197,1.07057,-0.208367
3109673,-9.75731,1.12805,-0.201182
3110682,-9.88664,0.948428,-0.244292
3111686,-9.82197,1.17835,-0.251477
3112689,-9.8579,1.04902,-0.165256
3113694,-9.8579,1.01309,-0.301772
3114697,-9.85072,1.08494,-0.222737
3115701,-9.81479,1.11368,-0.237107
3116707,-9.85072,1.03465,-0.265847
3117709,-9.8579,1.07057,-0.193997
3118713,-9.8076,0.984353,-0.251477
3119717,-9.87227,1.03465,-0.280217
3120723,-9.86509,1.02746,-0.222737
3121727,-9.82916,1.01309,-0.208367
3122731,-9.82916,1.16398,-0.208367
3123731,-9.79323,1.04902,-0.215552
3124738,-9.8076,0.948428,-0.244292
3125343,-204.508,-4.41163,-4.36133
3125356,-203.272,6.85455,-7.89638
3125369,-199.939,0.0718506,-4.14578
3125382,-194.593,-1.83219,6.251
3125395,-198.042,-5.92049,3.09676
3125409,-192.667,-0.459844,-8.99569
3125422,-194.665,4.32541,-5.72649
3125440,-189.736,3.48475,3.8943
3125457,-190.174,0.416733,3.44883
3125505,0.229922,11.5033,-190.347
3125518,-190.203,4.00926,-1.83938
3125538,-192.754,1.0562,1.3005
3125557,-192.847,0.294587,1.50886
3125570,-193.4,0.804727,-2.04774
3125583,-193.364,0.395178,-1.91123
3125598,-192.861,1.18553,-3.47757
3125611,-193.781,0.402363,-0.330513
3125624,-193.716,0.560435,1.14961
3125637,-193.371,0.58199,-3.19017
3125650,-193.817,0.783171,-2.09804
3125663,-193.939,0.675395,-0.201182
3125676,-193.436,0.876577,-2.3064
3125694,-194.629,0.754431,-1.65256
3125711,-194.607,0.833467,-2.27766
3125730,-194.571,1.00591,-1.78189
3125743,-194.967,0.682581,-1.28613
3125761,-194.607,0.840652,-1.35798
3125778,-195.319,0.768801,-1.41546
3125791,-194.615,0.926873,-2.70877
3125804,-195.311,0.689766,-2.27048
3125817,-196.03,0.941243,-2.5004
3125835,-196.281,0.617915,-2.33514
3125879,0.229922,11.5033,-190.347
3125892,-197,1.11368,-3.93741
3125910,-196.978,0.869392,-4.33259
3125927,-197.956,1.0562,-4.09548
3125946,-198.566,0.883762,-3.65001
3125959,-199.472,0.840652,-4.13859
3125977,-199.493,0.876577,-4.54814
3125994,-200.434,0.977168,-5.24509
3126009,-199.917,1.07057,-4.87865
3126022,-200.327,1.02028,-4.58407
3126037,-200.363,1.03465,-6.32285
3126053,-201.541,0.869392,-5.12295
3126066,-201.412,1.09931,-5.1445
3126079,-201.685,1.29331,-6.95514
3126092,-201.965,0.790356,-6.57433
3126105,-202.892,0.603545,-4.45474
3126118,-203.186,0.682581,-4.26792
3126137,-204.142,0.617915,-4.68466
3126154,-203.675,0.732876,-5.50376
3126171,-204.559,0.661025,-4.78525
3126184,-205.026,0.560435,-5.71212
3126202,-204.839,0.158071,-5.39598
3126222,-206.039,0,-2.5507
3126265,0.229922,11.5033,-190.347
3126278,-206.599,-0.409548,-4.58407
3126293,-207.742,-0.395178,-2.23455
3126306,-207.806,0,-3.25483
3126319,-208.058,-0.0215552,-2.96024
3126332,-208.748,-0.186812,-2.81654
3126346,-209.588,-0.0646655,-2.5004
3126359,-209.998,0.395178,-1.99026
3126377,-210.529,0.560435,-2.27766
3126394,-210.838,0.718506,-2.17707
3126411,-212.11,1.03465,-2.12678
3126428,-212.103,1.1065,-2.02619
3126443,-212.671,1.16398,-1.6813
3126461,-213.626,1.52323,-2.32796
3126478,-214.223,1.88967,-2.24892
3126491,-214.467,1.60227,-2.24174
3126504,-215.329,1.83219,-2.32077
3126517,-215.113,1.45857,-1.56634
3126532,-216.328,1.41546,-2.62255
3126545,-216.795,1.04902,-2.61536
3126561,-216.946,1.07057,-2.44292
3126574,-217.326,1.1999,-2.78062
3126587,-217.542,0.689766,-4.16015
3126600,-217.635,0.431104,-2.73751
3126649,0.229922,11.5033,-190.347
3126672,-219.777,-0.926873,-4.25355
3126689,-220.581,-1.37953,-2.83091
3126702,-220.782,-1.48731,-3.29794
3126719,-221.027,-2.31359,-3.27639
3126736,-221.867,-2.04056,-2.58662
3126749,-221.875,-2.59381,-3.33387
3126762,-222.787,-1.81063,-2.36388
3126775,-222.327,-1.84656,-3.48475
3126788,-222.363,-2.29203,-1.88967
3126801,-223.319,-1.38672,-2.79499
3126814,-223.886,-2.51477,-3.29076
3126828,-223.283,-1.7316,-6.17197
3126841,-223.692,-0.991538,-1.45857
3126854,-223.872,-2.46448,-5.46783
3126871,-224.346,-1.85375,-4.03082
3126892,-225.719,-1.34361,-1.73878
3126909,-226.257,-0.876577,-3.72186
3126924,-225.826,-1.43701,-1.76752
3126941,-227.17,-0.165256,-3.91586
3126959,-227.113,-0.538879,-3.92304
3126973,-227.457,-0.826282,-2.53633
3127016,0.229922,11.5033,-190.347
3127029,-228.614,-1.32924,-3.57097
3127044,-228.083,-1.96871,-3.88712
3127058,-227.917,-1.08494,-4.74932
3127071,-228.765,-1.03465,-4.32541
3127084,-227.953,-1.1999,-2.05493
3127099,-228.542,-2.06211,-4.22481
3127112,-228.47,-1.41546,-3.32668
3127129,-228.341,-0.359253,-3.35542
3127146,-228.276,-1.06339,-2.94587
3127164,-227.22,-1.21427,-2.73032
3127177,-226.94,-0.977168,-3.87993
3127194,-225.28,-1.26457,-4.82117
3127211,-226.272,-2.00463,-2.75906
3127224,-225.438,0.0862207,-3.99489
3127237,-224.583,-1.40827,-4.32541
3127250,-224.289,-1.07776,-2.53633
3127265,-223.843,-1.72441,-3.58534
3127278,-223.944,-2.14833,-4.34696
3127291,-224.799,-1.86093,-3.81527
3127304,-224.224,-1.36516,-1.8753
3127317,-223.419,-2.39981,-6.12167
3127330,-223.764,-1.31487,-3.98052
3127347,-223.47,-1.84656,-4.20326
3127395,0.229922,11.5033,-190.347
3127413,-223.11,-1.14961,-4.95769
3127428,-223.865,-1.01309,-3.66438
3127445,-223.132,-0.143701,-4.52659
3127463,-223.815,-0.574805,-3.64282
3127476,-223.189,-0.696951,-5.26665
3127489,-222.801,-0.0431104,-5.33131
3127502,-223.412,-0.186812,-3.85119
3127515,-223.125,-0.704136,-3.5566
3127528,-222.37,-0.265847,-2.70158
3127541,-222.995,-0.0431104,-3.14706
3127555,-223.01,-0.704136,-4.33259
3127568,-223.082,-1.23583,-1.80345
3127581,-222.277,-1.48731,-3.43446
3127600,-222.715,-2.04056,-5.44627
3127619,-222.794,-0.941243,-1.83938
3127636,-223.017,-1.35079,-1.2502
3127649,-222.054,-0.474214,-3.80808
3127668,-222.061,0.452659,-3.90867
3127685,-223.017,-1.13524,-2.60099
3127698,-222.629,-0.61073,-2.85965
3127711,-223.326,-1.28613,-5.74086
3127724,-223.34,-1.21427,-3.77934
3127768,0.229922,11.5033,-190.347
3127781,-222.701,-0.969983,-5.43909
3127796,-223.067,-0.122146,-4.24637
3127809,-223.218,-1.28613,-3.07521
3127826,-223.829,-0.100591,-5.21635
3127843,-223.269,0.359253,-4.67747
3127860,-224.009,-0.926873,-9.33339
3127873,-223.585,-1.28613,-3.65001
3127890,-223.721,-0.251477,-8.34904
3127907,-223.678,0.100591,-2.59381
3127920,-220.423,0.337698,-5.02236
3127937,-214.172,-0.682581,-5.54687
3127950,-209.753,-1.43701,-4.50503
3127963,-204.573,0.0790356,-3.4129
3127976,-198.875,0.380808,-2.00463
3127989,-193.853,-0.445474,-3.96615
3128002,-190.706,-0.689766,-3.82964
3128015,-188.162,-0.65384,-3.43446
3128028,-185.633,0.423918,-3.11113
3128045,-181.969,0.0502954,-2.13396
3128062,-177.651,-0.387993,-4.41881
3128080,-172.513,-1.33642,-4.31104
3128094,-167.972,-0.0143701,-4.90021
3128144,0.229922,11.5033,-190.347
3128161,-151.605,0.129331,-2.74469
3128176,-148.336,-0.258662,-3.88712
3128189,-144.175,-0.445474,-4.3757
3128202,-140.489,0.143701,-4.15296
3128215,-136.135,-1.19272,-5.28102
3128228,-133.017,-0.172441,-6.10011
3128241,-131.041,0.423918,-0.977168
3128254,-128.663,-0.193997,-2.96024
3128267,-126.795,-0.395178,-5.36005
3128280,-125.961,-0.718506,-5.94204
3128301,-124.704,-0.143701,-3.27639
3128318,-122.987,-0.201182,-6.57433
3128335,-121.427,-0.560435,-5.71931
3128348,-120.335,-1.41546,-1.86093
3128365,-116.75,-0.114961,-6.251
3128382,-112.662,-0.402363,-3.72905
3128395,-109.076,-1.55197,-4.46911
3128408,-105.829,-0.273032,-5.18043
3128421,-103.371,-1.71723,-6.30848
3128438,-100.562,-0.732876,-5.0511
3128451,-98.7586,0.165256,-6.29411
3128464,-96.5528,-0.287402,-5.1948
3128508,0.229922,11.5033,-190.347
3128525,-89.4396,-0.740061,-5.18761
3128542,-87.5068,-0.632285,-6.5887
3128559,-84.5681,-1.48012,-5.71931
3128572,-81.5792,-1.59508,-3.81527
3128589,-76.2838,-0.689766,-7.47965
3128606,-70.4926,-0.352068,-6.73958
3128619,-66.1313,-0.811912,-5.12295
3128632,-62.3088,-0.531694,-4.8571
3128647,-58.4576,-0.387993,-6.22226
3128660,-56.2662,-1.12805,-4.08111
3128673,-53.3634,-0.855022,-4.69184
3128686,-50.7409,0.100591,-6.07137
3128699,-48.3986,0.0862207,-5.92767
3128714,-43.7857,-1.09213,-9.46991
3128727,-40.3585,-0.732876,-3.4129
3128744,-35.9109,-2.90995,-3.87993
3128762,-30.982,-2.39262,-4.27511
3128779,-26.9296,-0.61073,-4.75651
3128793,-24.2855,-2.5004,-7.90356
3128810,-22.0653,-2.39262,-4.32541
3128827,-21.1887,-1.5376,-5.35287
3128841,-19.2344,-0.495769,-7.95386
3128884,0.229922,11.5033,-190.347
3128897,-8.90229,-0.280217,-6.47374
3128910,-5.51094,-0.0718506,-7.77423
3128923,-1.01309,-0.790356,-9.65672
3128938,2.96743,-1.37953,-7.12039
3128951,5.80553,-0.977168,-3.72186
3128968,10.4399,-1.17116,-3.77934
3128981,11.9344,-2.00463,-5.26665
3129000,16.7268,-1.40109,-6.32285
3129017,18.6165,-1.7316,-5.99952
3129034,20.4128,-1.37953,-7.05573
3129047,21.9001,-1.63819,-7.12039
3129064,23.0928,-2.04056,-7.11321
3129082,24.9178,-1.89686,-9.19687
3129096,25.6794,-1.30768,-8.84481
3129109,26.2686,0.962798,-6.89766
3129122,26.5775,0.244292,-8.14067
3129137,27.6266,0.409548,-9.36932
3129154,28.2948,1.19272,-8.06882
3129167,28.6109,-0.330513,-1.83938
3129180,29.7821,-2.19144,-6.17915
3129193,29.5953,-1.04902,-7.74549
3129206,30.788,-1.79626,-6.45218
3129223,30.8598,-0.905317,-5.34568
3129271,0.229922,11.5033,-190.347
3129288,33.777,-2.09085,-5.16606
3129301,32.7639,0.459844,-5.76242
3129318,33.7267,-2.11241,-7.73831
3129335,34.1578,-2.19863,-5.16606
3129348,34.711,-2.75188,-7.22098
3129361,34.7829,-2.18426,-4.41163
3129374,35.1278,-2.60099,-4.76369
3129387,35.1062,-1.68849,-6.71803
3129400,35.5445,-1.45857,-7.40061
3129415,35.5732,-1.86093,-8.8017
3129430,35.4439,-1.81782,-9.22562
3129443,35.7744,-1.68849,-5.66183
3129458,35.9756,-2.70158,-6.3013
3129479,35.7529,-0.991538,-3.01772
3129496,35.5445,0.531694,-4.99362
3129513,35.6379,0.244292,-3.67157
3129526,35.6523,0.912502,-2.3567
3129543,35.954,-1.35798,-8.04727
3129560,36.0259,-0.0143701,-5.56842
3129575,36.3851,-0.510139,-5.05828
3129588,35.9468,-0.768801,-3.84401
3129601,36.9312,-0.574805,-3.43446
3129644,0.229922,11.5033,-190.347
3129659,38.1742,-2.76625,-4.54814
3129672,38.0233,-2.49322,-6.7324
3129687,37.3192,0.186812,-0.409548
3129704,37.312,-1.55197,-4.64155
3129721,38.0233,0.0574805,-5.35287
3129738,37.6928,0.244292,-5.25228
3129753,38.5694,-0.150886,-7.50839
3129770,37.585,-0.0574805,-4.36133
3129787,37.5779,0.100591,-3.71468
3129802,37.6497,0.0718506,-3.49194
3129815,38.2173,-0.229922,-7.17787
3129828,37.8006,-0.65384,-5.51094
3129841,37.5491,-1.00591,-2.37107
3129854,37.5491,-1.09213,-3.96615
3129867,37.6425,-1.62382,-1.78189
3129880,37.7647,1.12805,-6.66055
3129893,37.6066,-2.5507,-3.40572
3129908,37.2617,-1.83938,-3.14706
3129925,38.3179,-1.41546,-4.90021
3129942,37.7431,0.524509,-4.57688
3129959,38.4401,-1.43701,-5.48938
3129973,38.088,-0.804727,-5.49657
3130025,38.0736,-0.890947,-8.52866
3130042,38.1527,-1.07057,-5.61872
3130055,38.4688,-0.150886,-8.6077
3130068,38.1455,-1.8753,-5.25946
3130081,37.8724,-0.63947,-5.66183
3130094,37.197,-1.65975,-0.237107
3130108,36.8737,-0.948428,-2.16989
3130121,37.7575,-0.646655,-4.20326
3130134,37.3336,0.122146,-5.29539
3130147,37.391,-0.143701,-3.03209
3130160,37.2402,-1.29331,-7.10602
3130178,37.2186,0.811912,-4.90021
3130198,36.6222,-0.431104,-4.77806
3130215,36.6294,-0.560435,-3.35542
3130228,36.3348,-0.977168,-5.24509
3130245,36.7516,-1.1999,-3.70031
3130262,37.3407,-1.40827,-3.39853
3130275,36.378,0.61073,-3.69312
3130288,35.9397,-0.294587,-3.21891
3130301,36.2055,0.129331,-1.65256
3130314,36.6797,1.67412,-5.84864
3130327,36.6869,-0.0359253,-5.35287
3130340,36.1696,-1.50886,-5.23791
3130356,36.4857,-1.4442,-6.30848
3130400,0.229922,11.5033,-190.347
3130417,36.0977,-1.89686,-6.15041
3130434,36.2774,-2.57944,-4.56251
3130451,36.1265,-1.02028,-1.11368
3130464,35.4511,-0.172441,-4.72777
3130481,34.5889,0.395178,1.1065
3130498,34.5673,1.22146,-5.60435
3130512,34.3518,0.819097,-0.0718506
3130530,35.3936,-0.58199,-5.83427
3130543,35.2427,1.62382,-4.28948
3130556,34.5458,-1.5376,-3.92304
3130569,34.6104,-1.16398,-2.23455
3130583,35.02,-2.99617,-2.47166
3130596,35.2715,-0.495769,-5.0511
3130610,34.4595,0.761616,-4.00208
3130623,34.4021,0.502954,-4.8571
3130641,34.3733,-1.76752,-3.49912
3130658,33.9997,-1.91123,-1.91123
3130675,33.8632,-0.926873,-3.4129
3130688,34.4308,-0.0646655,-6.96951
3130707,34.0069,-1.40827,-3.59971
3130724,33.6333,0.208367,-4.00926
3130739,33.6907,0.00718506,-6.06419
3130782,0.229922,11.5033,-190.347
3130795,33.6907,0.66821,-4.87147
3130808,33.6476,-0.0431104,-3.15424
3130821,33.274,-2.32077,-4.426
3130834,33.4177,-1.89686,-2.15552
3130847,33.547,0.186812,-3.01772
3130861,33.468,1.01309,-1.63819
3130874,32.3615,-1.16398,-3.10395
3130892,32.6848,0.323328,-2.55788
3130910,32.5052,-0.201182,-2.54351
3130927,32.1603,1.13524,-2.19144
3130940,32.2609,-0.984353,-0.431104
3130958,32.5339,0.143701,-3.49194
3130975,31.5855,-0.948428,-2.46448
3130988,32.5483,0.488584,-3.08958
3131001,32.5411,-0.316143,-3.20454
3131015,31.9448,1.12805,-3.08239
3131033,31.7436,1.09931,-1.86812
3131046,31.2047,-0.150886,-1.8753
3131061,32.0813,-1.5376,-3.47757
3131075,32.1747,-0.359253,-3.35542
3131088,31.1903,0.675395,-3.20454
3131106,32.1531,-1.48731,-4.01645
3131124,30.982,-0.524509,-2.14833
3131171,0.229922,11.5033,-190.347
3131185,31.4993,-0.962798,-4.67029
3131203,30.7018,-0.984353,-4.47629
3131220,30.9676,-0.768801,-8.25563
